Sub  Trial   Group    Task  Block  Errors      Stimuli  Subtask       RT   Response  Accuracy
  1      1 MPGE-SL    Perc      1       0  R:D1A-L:D2B        S   748.96  SubjRight         C
  1      2 MPGE-SL    Perc      1       0  R:D1B-L:D2B        S   997.03   SubjLeft         F
  1      3 MPGE-SL    Perc      1       0  R:D2B-L:D1B        S   696.09  SubjRight         F
  1      4 MPGE-SL    Perc      1       0  R:D2B-L:D1B        S   462.94  SubjRight         F
  1      5 MPGE-SL    Perc      1       0  R:D1B-L:D2B        S   566.70   SubjLeft         F
  1      6 MPGE-SL    Perc      1       0  R:D1A-L:D2B        S   452.94  SubjRight         C
  1      7 MPGE-SL    Perc      1       0  R:D1B-L:D2B        S   619.83   SubjLeft         F
  1      8 MPGE-SL    Perc      1       0  R:D2B-L:D1A        S   505.14   SubjLeft         C
  1      9 MPGE-SL    Perc      1       0  R:D1B-L:D2A        S   360.85  SubjRight         C
  1     10 MPGE-SL    Perc      1       0  R:D1A-L:D2B        S   536.75   SubjLeft         F
  1     11 MPGE-SL    Perc      1       0  R:D1A-L:D2B        S   424.65  SubjRight         C
  1     12 MPGE-SL    Perc      1       0  R:D1B-L:D2B        S   476.86   SubjLeft         F
  1     13 MPGE-SL    Perc      1       0  R:D2B-L:D1B        S   408.71  SubjRight         F
  1     14 MPGE-SL    Perc      1       0  R:D1B-L:D2A        S   373.68   SubjLeft         F
  1     15 MPGE-SL    Perc      1       0  R:D1B-L:D2A        S   389.84  SubjRight         C
  1     16 MPGE-SL    Perc      1       0  R:D2A-L:D1B        S   336.41   SubjLeft         C
  1     17 MPGE-SL    Perc      1       0  R:D1A-L:D2A        S   527.77  SubjRight         C
  1     18 MPGE-SL    Perc      1       0  R:D2A-L:D1A        S   524.04   SubjLeft         C
  1     19 MPGE-SL    Perc      1       0  R:D2A-L:D1B        S   422.73  SubjRight         F
  1     20 MPGE-SL    Perc      1       0  R:D1B-L:D2A        S   407.52   SubjLeft         F
  1     21 MPGE-SL    Perc      1       0  R:D2B-L:D1B        S   445.48   SubjLeft         C
  1     22 MPGE-SL    Perc      1       0  R:D2A-L:D1B        S   515.24   SubjLeft         C
  1     23 MPGE-SL    Perc      1       0  R:D2A-L:D1A        S   410.29  SubjRight         F
  1     24 MPGE-SL    Perc      1       0  R:D2A-L:D1B        S   497.54   SubjLeft         C
  1     25 MPGE-SL    Perc      1       0  R:D2B-L:D1A        S   618.48   SubjLeft         C
  1     26 MPGE-SL    Perc      1       0  R:D2A-L:D1A        S   505.82  SubjRight         F
  1     27 MPGE-SL    Perc      1       0  R:D2A-L:D1A        S   420.55  SubjRight         F
  1     28 MPGE-SL    Perc      1       0  R:D2B-L:D1A        S   383.33   SubjLeft         C
  1     29 MPGE-SL    Perc      1       0  R:D1A-L:D2A        S   409.08  SubjRight         C
  1     30 MPGE-SL    Perc      1       0  R:D1A-L:D2A        S   549.33   SubjLeft         F
  1     31 MPGE-SL    Perc      1       0  R:D2B-L:D1A        S   423.15  SubjRight         F
  1     32 MPGE-SL    Perc      1       0  R:D1A-L:D2A        S   446.78   SubjLeft         F
  1     33 MPGE-SL    Perc      2       0  R:D2A-L:D1A        S   668.04   SubjLeft         C
  1     34 MPGE-SL    Perc      2       0  R:D2A-L:D1A        S   417.09  SubjRight         F
  1     35 MPGE-SL    Perc      2       0  R:D2B-L:D1A        S   496.71   SubjLeft         C
  1     36 MPGE-SL    Perc      2       0  R:D1A-L:D2A        S   453.85  SubjRight         C
  1     37 MPGE-SL    Perc      2       0  R:D2B-L:D1A        S   349.40   SubjLeft         C
  1     38 MPGE-SL    Perc      2       0  R:D1B-L:D2A        S   314.39  SubjRight         C
  1     39 MPGE-SL    Perc      2       0  R:D1B-L:D2A        S   320.18   SubjLeft         F
  1     40 MPGE-SL    Perc      2       0  R:D2B-L:D1A        S   397.13  SubjRight         F
  1     41 MPGE-SL    Perc      2       0  R:D2B-L:D1B        S   310.84  SubjRight         F
  1     42 MPGE-SL    Perc      2       0  R:D1A-L:D2B        S   400.79  SubjRight         C
  1     43 MPGE-SL    Perc      2       0  R:D1B-L:D2A        S   471.23  SubjRight         C
  1     44 MPGE-SL    Perc      2       0  R:D1B-L:D2A        S   526.80  SubjRight         C
  1     45 MPGE-SL    Perc      2       0  R:D1B-L:D2B        S   897.28  SubjRight         C
  1     46 MPGE-SL    Perc      2       0  R:D2B-L:D1B        S   590.37  SubjRight         F
  1     47 MPGE-SL    Perc      2       0  R:D1A-L:D2B        S   525.12  SubjRight         C
  1     48 MPGE-SL    Perc      2       0  R:D1A-L:D2A        S   465.48  SubjRight         C
  1     49 MPGE-SL    Perc      2       0  R:D2A-L:D1B        S   534.88   SubjLeft         C
  1     50 MPGE-SL    Perc      2       0  R:D2B-L:D1B        S   484.18  SubjRight         F
  1     51 MPGE-SL    Perc      2       0  R:D2B-L:D1B        S   588.95   SubjLeft         C
  1     52 MPGE-SL    Perc      2       0  R:D2A-L:D1A        S   603.70  SubjRight         F
  1     53 MPGE-SL    Perc      2       0  R:D2B-L:D1A        S   868.38  SubjRight         F
  1     54 MPGE-SL    Perc      2       0  R:D1B-L:D2B        S   536.71   SubjLeft         F
  1     55 MPGE-SL    Perc      2       0  R:D2A-L:D1B        S   397.21  SubjRight         F
  1     56 MPGE-SL    Perc      2       0  R:D1A-L:D2A        S   515.60  SubjRight         C
  1     57 MPGE-SL    Perc      2       0  R:D1A-L:D2B        S   458.22   SubjLeft         F
  1     58 MPGE-SL    Perc      2       0  R:D2A-L:D1A        S   430.89  SubjRight         F
  1     59 MPGE-SL    Perc      2       0  R:D1B-L:D2B        S   522.43   SubjLeft         F
  1     60 MPGE-SL    Perc      2       0  R:D1A-L:D2B        S   485.48  SubjRight         C
  1     61 MPGE-SL    Perc      2       0  R:D2A-L:D1B        S   618.52   SubjLeft         C
  1     62 MPGE-SL    Perc      2       0  R:D1B-L:D2B        S   420.45   SubjLeft         F
  1     63 MPGE-SL    Perc      2       0  R:D2A-L:D1B        S   507.99  SubjRight         F
  1     64 MPGE-SL    Perc      2       0  R:D1A-L:D2A        S   457.15  SubjRight         C
  1     65 MPGE-SL    Perc      1       0  R:D2B-L:D1A        L   475.46  SubjRight         C
  1     66 MPGE-SL    Perc      1       0  R:D2B-L:D1B        L   371.15   SubjLeft         F
  1     67 MPGE-SL    Perc      1       0  R:D2A-L:D1B        L   379.24  SubjRight         C
  1     68 MPGE-SL    Perc      1       0  R:D1A-L:D2B        L   357.58  SubjRight         F
  1     69 MPGE-SL    Perc      1       0  R:D2A-L:D1A        L   389.84  SubjRight         C
  1     70 MPGE-SL    Perc      1       0  R:D2A-L:D1B        L   345.66  SubjRight         C
  1     71 MPGE-SL    Perc      1       0  R:D1A-L:D2A        L   409.41  SubjRight         F
  1     72 MPGE-SL    Perc      1       0  R:D1B-L:D2A        L   491.74  SubjRight         F
  1     73 MPGE-SL    Perc      1       0  R:D1A-L:D2A        L   421.28  SubjRight         F
  1     74 MPGE-SL    Perc      1       0  R:D1B-L:D2B        L   439.75  SubjRight         F
  1     75 MPGE-SL    Perc      1       0  R:D2A-L:D1A        L   701.84  SubjRight         C
  1     76 MPGE-SL    Perc      1       0  R:D1A-L:D2B        L   573.80   SubjLeft         C
  1     77 MPGE-SL    Perc      1       0  R:D2B-L:D1A        L   472.66  SubjRight         C
  1     78 MPGE-SL    Perc      1       0  R:D2A-L:D1A        L   423.07  SubjRight         C
  1     79 MPGE-SL    Perc      1       0  R:D2A-L:D1B        L   449.53  SubjRight         C
  1     80 MPGE-SL    Perc      1       0  R:D2B-L:D1A        L   472.47  SubjRight         C
  1     81 MPGE-SL    Perc      1       0  R:D1B-L:D2B        L   581.39  SubjRight         F
  1     82 MPGE-SL    Perc      1       0  R:D1B-L:D2A        L   488.24   SubjLeft         C
  1     83 MPGE-SL    Perc      1       0  R:D1A-L:D2B        L   621.11  SubjRight         F
  1     84 MPGE-SL    Perc      1       0  R:D2B-L:D1A        L   560.03  SubjRight         C
  1     85 MPGE-SL    Perc      1       0  R:D2A-L:D1A        L   641.57   SubjLeft         F
  1     86 MPGE-SL    Perc      1       0  R:D1A-L:D2A        L   534.70  SubjRight         F
  1     87 MPGE-SL    Perc      1       0  R:D1B-L:D2B        L   510.88   SubjLeft         C
  1     88 MPGE-SL    Perc      1       0  R:D1A-L:D2A        L   558.08   SubjLeft         C
  1     89 MPGE-SL    Perc      1       0  R:D2B-L:D1B        L   446.92  SubjRight         C
  1     90 MPGE-SL    Perc      1       0  R:D1B-L:D2A        L   861.77   SubjLeft         C
  1     91 MPGE-SL    Perc      1       0  R:D1B-L:D2A        L   397.27  SubjRight         F
  1     92 MPGE-SL    Perc      1       0  R:D1B-L:D2B        L   483.29   SubjLeft         C
  1     93 MPGE-SL    Perc      1       0  R:D2B-L:D1B        L  1019.31   SubjLeft         F
  1     94 MPGE-SL    Perc      1       0  R:D2B-L:D1B        L   457.33  SubjRight         C
  1     95 MPGE-SL    Perc      1       0  R:D2A-L:D1B        L   475.35   SubjLeft         F
  1     96 MPGE-SL    Perc      1       0  R:D1A-L:D2B        L   374.91  SubjRight         F
  1     97 MPGE-SL    Perc      2       0  R:D1A-L:D2B        L   512.99   SubjLeft         C
  1     98 MPGE-SL    Perc      2       0  R:D2B-L:D1A        L   491.59  SubjRight         C
  1     99 MPGE-SL    Perc      2       0  R:D2B-L:D1B        L   388.92   SubjLeft         F
  1    100 MPGE-SL    Perc      2       0  R:D2A-L:D1B        L   414.32  SubjRight         C
  1    101 MPGE-SL    Perc      2       0  R:D2A-L:D1A        L   430.64   SubjLeft         F
  1    102 MPGE-SL    Perc      2       0  R:D1A-L:D2A        L   400.65  SubjRight         F
  1    103 MPGE-SL    Perc      2       0  R:D1B-L:D2B        L   372.88  SubjRight         F
  1    104 MPGE-SL    Perc      2       0  R:D1A-L:D2A        L   689.95   SubjLeft         C
  1    105 MPGE-SL    Perc      2       0  R:D2B-L:D1A        L   435.86  SubjRight         C
  1    106 MPGE-SL    Perc      2       0  R:D2A-L:D1B        L   365.41  SubjRight         C
  1    107 MPGE-SL    Perc      2       0  R:D2B-L:D1A        L   498.05  SubjRight         C
  1    108 MPGE-SL    Perc      2       0  R:D2B-L:D1B        L   406.19  SubjRight         C
  1    109 MPGE-SL    Perc      2       0  R:D1B-L:D2B        L   817.85   SubjLeft         C
  1    110 MPGE-SL    Perc      2       0  R:D1B-L:D2A        L   419.90  SubjRight         F
  1    111 MPGE-SL    Perc      2       0  R:D1B-L:D2A        L   514.96   SubjLeft         C
  1    112 MPGE-SL    Perc      2       0  R:D2B-L:D1B        L   632.23   SubjLeft         F
  1    113 MPGE-SL    Perc      2       0  R:D1B-L:D2B        L   599.34   SubjLeft         C
  1    114 MPGE-SL    Perc      2       0  R:D1A-L:D2B        L   486.13  SubjRight         F
  1    115 MPGE-SL    Perc      2       0  R:D2A-L:D1A        L   592.07   SubjLeft         F
  1    116 MPGE-SL    Perc      2       0  R:D2A-L:D1B        L   457.54  SubjRight         C
  1    117 MPGE-SL    Perc      2       0  R:D1B-L:D2A        L   553.60   SubjLeft         C
  1    118 MPGE-SL    Perc      2       0  R:D2A-L:D1A        L   462.40   SubjLeft         F
  1    119 MPGE-SL    Perc      2       0  R:D1A-L:D2A        L   507.65   SubjLeft         C
  1    120 MPGE-SL    Perc      2       0  R:D1B-L:D2A        L   464.81   SubjLeft         C
  1    121 MPGE-SL    Perc      2       0  R:D1B-L:D2B        L   532.68  SubjRight         F
  1    122 MPGE-SL    Perc      2       0  R:D2A-L:D1B        L   711.15   SubjLeft         F
  1    123 MPGE-SL    Perc      2       0  R:D1A-L:D2B        L   467.97   SubjLeft         C
  1    124 MPGE-SL    Perc      2       0  R:D1A-L:D2B        L   483.73  SubjRight         F
  1    125 MPGE-SL    Perc      2       0  R:D2A-L:D1A        L   403.21   SubjLeft         F
  1    126 MPGE-SL    Perc      2       0  R:D2B-L:D1A        L   526.54  SubjRight         C
  1    127 MPGE-SL    Perc      2       0  R:D2B-L:D1B        L   967.32  SubjRight         C
  1    128 MPGE-SL    Perc      2       0  R:D1A-L:D2A        L   559.69  SubjRight         F
  2      1 MGPE-SL    Perc      1       0  R:D2B-L:D1B        S   445.92   SubjLeft         C
  2      2 MGPE-SL    Perc      1       0  R:D2A-L:D1B        S   818.05  SubjRight         F
  2      3 MGPE-SL    Perc      1       0  R:D2B-L:D1B        S   718.48   SubjLeft         C
  2      4 MGPE-SL    Perc      1       0  R:D2B-L:D1A        S   841.67   SubjLeft         C
  2      5 MGPE-SL    Perc      1       0  R:D2A-L:D1B        S   759.43   SubjLeft         C
  2      6 MGPE-SL    Perc      1       0  R:D1B-L:D2A        S  1064.59   SubjLeft         F
  2      7 MGPE-SL    Perc      1       0  R:D1B-L:D2B        S   691.60  SubjRight         C
  2      8 MGPE-SL    Perc      1       0  R:D2B-L:D1A        S   725.53  SubjRight         F
  2      9 MGPE-SL    Perc      1       0  R:D2B-L:D1B        S   757.55   SubjLeft         C
  2     10 MGPE-SL    Perc      1       0  R:D2B-L:D1A        S   765.59   SubjLeft         C
  2     11 MGPE-SL    Perc      1       0  R:D1A-L:D2A        S   673.89   SubjLeft         F
  2     12 MGPE-SL    Perc      1       0  R:D1B-L:D2B        S   812.74   SubjLeft         F
  2     13 MGPE-SL    Perc      1       0  R:D1A-L:D2A        S  1037.40   SubjLeft         F
  2     14 MGPE-SL    Perc      1       0  R:D2A-L:D1B        S   826.42  SubjRight         F
  2     15 MGPE-SL    Perc      1       0  R:D2A-L:D1A        S   670.04   SubjLeft         C
  2     16 MGPE-SL    Perc      1       0  R:D2A-L:D1A        S   725.80   SubjLeft         C
  2     17 MGPE-SL    Perc      1       0  R:D2B-L:D1A        S   786.63   SubjLeft         C
  2     18 MGPE-SL    Perc      1       0  R:D1B-L:D2B        S   980.23   SubjLeft         F
  2     19 MGPE-SL    Perc      1       0  R:D1A-L:D2A        S  1201.28   SubjLeft         F
  2     20 MGPE-SL    Perc      1       0  R:D1B-L:D2B        S   937.38  SubjRight         C
  2     21 MGPE-SL    Perc      1       0  R:D1B-L:D2A        S  1030.10  SubjRight         C
  2     22 MGPE-SL    Perc      1       0  R:D2A-L:D1A        S  1246.34   SubjLeft         C
  2     23 MGPE-SL    Perc      1       0  R:D1B-L:D2A        S   832.82  SubjRight         C
  2     24 MGPE-SL    Perc      1       0  R:D1B-L:D2A        S   638.38   SubjLeft         F
  2     25 MGPE-SL    Perc      1       0  R:D1A-L:D2B        S   793.56   SubjLeft         F
  2     26 MGPE-SL    Perc      1       0  R:D1A-L:D2B        S   898.32  SubjRight         C
  2     27 MGPE-SL    Perc      1       0  R:D1A-L:D2B        S  1153.27   SubjLeft         F
  2     28 MGPE-SL    Perc      1       0  R:D2B-L:D1B        S   953.04   SubjLeft         C
  2     29 MGPE-SL    Perc      1       0  R:D1A-L:D2A        S   848.82  SubjRight         C
  2     30 MGPE-SL    Perc      1       0  R:D2A-L:D1B        S  1629.82  SubjRight         F
  2     31 MGPE-SL    Perc      1       0  R:D2A-L:D1A        S   568.22   SubjLeft         C
  2     32 MGPE-SL    Perc      1       0  R:D1A-L:D2B        S   931.97  SubjRight         C
  2     33 MGPE-SL    Perc      2       0  R:D1B-L:D2A        S   512.13   SubjLeft         F
  2     34 MGPE-SL    Perc      2       0  R:D2A-L:D1A        S   613.15  SubjRight         F
  2     35 MGPE-SL    Perc      2       0  R:D1B-L:D2A        S   765.89   SubjLeft         F
  2     36 MGPE-SL    Perc      2       0  R:D2B-L:D1B        S   830.46  SubjRight         F
  2     37 MGPE-SL    Perc      2       0  R:D1A-L:D2A        S  1138.34   SubjLeft         F
  2     38 MGPE-SL    Perc      2       0  R:D1A-L:D2A        S  1077.07   SubjLeft         F
  2     39 MGPE-SL    Perc      2       0  R:D2B-L:D1B        S   677.14  SubjRight         F
  2     40 MGPE-SL    Perc      2       0  R:D2B-L:D1B        S   667.36  SubjRight         F
  2     41 MGPE-SL    Perc      2       0  R:D2A-L:D1B        S   691.37   SubjLeft         C
  2     42 MGPE-SL    Perc      2       0  R:D1B-L:D2B        S   830.44  SubjRight         C
  2     43 MGPE-SL    Perc      2       0  R:D1B-L:D2B        S  1313.71   SubjLeft         F
  2     44 MGPE-SL    Perc      2       0  R:D2A-L:D1B        S  1171.73   SubjLeft         C
  2     45 MGPE-SL    Perc      2       0  R:D1A-L:D2B        S  1202.39  SubjRight         C
  2     46 MGPE-SL    Perc      2       0  R:D2B-L:D1A        S  1427.73   SubjLeft         C
  2     47 MGPE-SL    Perc      2       0  R:D2B-L:D1A        S  1013.46  SubjRight         F
  2     48 MGPE-SL    Perc      2       0  R:D1B-L:D2B        S   771.58   SubjLeft         F
  2     49 MGPE-SL    Perc      2       0  R:D1A-L:D2A        S   719.15  SubjRight         C
  2     50 MGPE-SL    Perc      2       0  R:D1A-L:D2B        S   651.97   SubjLeft         F
  2     51 MGPE-SL    Perc      2       0  R:D2A-L:D1B        S  1404.12   SubjLeft         C
  2     52 MGPE-SL    Perc      2       0  R:D1A-L:D2B        S  1640.21  SubjRight         C
  2     53 MGPE-SL    Perc      2       0  R:D2B-L:D1A        S  1369.09   SubjLeft         C
  2     54 MGPE-SL    Perc      2       0  R:D1A-L:D2A        S  1539.95  SubjRight         C
  2     55 MGPE-SL    Perc      2       0  R:D2A-L:D1A        S  1148.78  SubjRight         F
  2     56 MGPE-SL    Perc      2       0  R:D1B-L:D2A        S  1262.39   SubjLeft         F
  2     57 MGPE-SL    Perc      2       0  R:D1A-L:D2B        S  1189.85  SubjRight         C
  2     58 MGPE-SL    Perc      2       0  R:D1B-L:D2B        S  1108.26  SubjRight         C
  2     59 MGPE-SL    Perc      2       0  R:D2A-L:D1B        S   843.65   SubjLeft         C
  2     60 MGPE-SL    Perc      2       0  R:D2A-L:D1A        S  1559.78   SubjLeft         C
  2     61 MGPE-SL    Perc      2       0  R:D1B-L:D2A        S  1098.07  SubjRight         C
  2     62 MGPE-SL    Perc      2       0  R:D2B-L:D1A        S  1295.93   SubjLeft         C
  2     63 MGPE-SL    Perc      2       0  R:D2B-L:D1B        S  1693.03  SubjRight         F
  2     64 MGPE-SL    Perc      2       0  R:D2A-L:D1A        S  1160.40   SubjLeft         C
  2     65 MGPE-SL    Perc      1       0  R:D1A-L:D2A        L   668.28  SubjRight         F
  2     66 MGPE-SL    Perc      1       0  R:D1A-L:D2B        L   973.72  SubjRight         F
  2     67 MGPE-SL    Perc      1       0  R:D1B-L:D2B        L  1149.04   SubjLeft         C
  2     68 MGPE-SL    Perc      1       0  R:D2A-L:D1A        L  1084.43  SubjRight         C
  2     69 MGPE-SL    Perc      1       0  R:D2A-L:D1A        L  1377.53  SubjRight         C
  2     70 MGPE-SL    Perc      1       0  R:D1A-L:D2A        L  1053.19   SubjLeft         C
  2     71 MGPE-SL    Perc      1       0  R:D1B-L:D2A        L  1404.14  SubjRight         F
  2     72 MGPE-SL    Perc      1       0  R:D2A-L:D1B        L   973.69  SubjRight         C
  2     73 MGPE-SL    Perc      1       0  R:D1B-L:D2B        L  1286.58   SubjLeft         C
  2     74 MGPE-SL    Perc      1       0  R:D2B-L:D1B        L  1692.81   SubjLeft         F
  2     75 MGPE-SL    Perc      1       0  R:D1B-L:D2A        L  1800.98   SubjLeft         C
  2     76 MGPE-SL    Perc      1       0  R:D2A-L:D1A        L  1607.30  SubjRight         C
  2     77 MGPE-SL    Perc      1       0  R:D2B-L:D1A        L  1776.26  SubjRight         C
  2     78 MGPE-SL    Perc      1       0  R:D2A-L:D1A        L  1751.08   SubjLeft         F
  2     79 MGPE-SL    Perc      1       0  R:D1A-L:D2A        L  1745.12   SubjLeft         C
  2     80 MGPE-SL    Perc      1       0  R:D2B-L:D1A        L  1248.75  SubjRight         C
  2     81 MGPE-SL    Perc      1       0  R:D1B-L:D2A        L  1868.00   SubjLeft         C
  2     82 MGPE-SL    Perc      1       0  R:D2B-L:D1B        L  1782.03  SubjRight         C
  2     83 MGPE-SL    Perc      1       0  R:D2B-L:D1A        L  1975.85  SubjRight         C
  2     84 MGPE-SL    Perc      1       0  R:D1A-L:D2B        L  1474.64   SubjLeft         C
  2     85 MGPE-SL    Perc      1       0  R:D1B-L:D2B        L  1551.42  SubjRight         F
  2     86 MGPE-SL    Perc      1       0  R:D1A-L:D2B        L  1940.00  SubjRight         F
  2     87 MGPE-SL    Perc      1       0  R:D1B-L:D2B        L  1727.13   SubjLeft         C
  2     88 MGPE-SL    Perc      1       0  R:D2A-L:D1B        L  1110.64  SubjRight         C
  2     89 MGPE-SL    Perc      1       0  R:D1B-L:D2A        L  1240.85  SubjRight         F
  2     90 MGPE-SL    Perc      1       1  R:D2A-L:D1B        L  1032.85  SubjRight         C
  2     91 MGPE-SL    Perc      1       1  R:D1A-L:D2B        L  1054.05   SubjLeft         C
  2     92 MGPE-SL    Perc      1       1  R:D2A-L:D1B        L   854.09  SubjRight         C
  2     93 MGPE-SL    Perc      1       1  R:D2B-L:D1B        L  1265.54  SubjRight         C
  2     94 MGPE-SL    Perc      1       1  R:D2B-L:D1A        L  1236.66  SubjRight         C
  2     95 MGPE-SL    Perc      1       1  R:D2B-L:D1B        L  1366.29  SubjRight         C
  2     96 MGPE-SL    Perc      1       1  R:D1A-L:D2A        L   685.54  SubjRight         F
  2     97 MGPE-SL    Perc      2       1  R:D1A-L:D2B        L   909.55   SubjLeft         C
  2     98 MGPE-SL    Perc      2       1  R:D2B-L:D1B        L   658.86  SubjRight         C
  2     99 MGPE-SL    Perc      2       1  R:D2B-L:D1A        L   732.79  SubjRight         C
  2    100 MGPE-SL    Perc      2       1  R:D2A-L:D1A        L   840.58  SubjRight         C
  2    101 MGPE-SL    Perc      2       1  R:D1A-L:D2B        L  1603.30   SubjLeft         C
  2    102 MGPE-SL    Perc      2       1  R:D1B-L:D2B        L  1015.19  SubjRight         F
  2    103 MGPE-SL    Perc      2       1  R:D2A-L:D1B        L   919.07   SubjLeft         F
  2    104 MGPE-SL    Perc      2       1  R:D2B-L:D1B        L  1416.33  SubjRight         C
  2    105 MGPE-SL    Perc      2       1  R:D2B-L:D1A        L  1048.79   SubjLeft         F
  2    106 MGPE-SL    Perc      2       1  R:D1A-L:D2B        L   694.49  SubjRight         F
  2    107 MGPE-SL    Perc      2       1  R:D1B-L:D2A        L  1203.19   SubjLeft         C
  2    108 MGPE-SL    Perc      2       1  R:D1A-L:D2A        L   964.72  SubjRight         F
  2    109 MGPE-SL    Perc      2       1  R:D2B-L:D1A        L  1169.39  SubjRight         C
  2    110 MGPE-SL    Perc      2       1  R:D1B-L:D2B        L   973.23   SubjLeft         C
  2    111 MGPE-SL    Perc      2       1  R:D1B-L:D2B        L  1021.31  SubjRight         F
  2    112 MGPE-SL    Perc      2       1  R:D2B-L:D1A        L  1395.11   SubjLeft         F
  2    113 MGPE-SL    Perc      2       1  R:D1B-L:D2A        L  1402.88   SubjLeft         C
  2    114 MGPE-SL    Perc      2       2  R:D2A-L:D1A        L  1350.54   SubjLeft         F
  2    115 MGPE-SL    Perc      2       2  R:D2A-L:D1B        L  1404.70   SubjLeft         F
  2    116 MGPE-SL    Perc      2       2  R:D1A-L:D2A        L  1344.73   SubjLeft         C
  2    117 MGPE-SL    Perc      2       2  R:D1B-L:D2A        L  1516.83   SubjLeft         C
  2    118 MGPE-SL    Perc      2       2  R:D2A-L:D1A        L  1127.08   SubjLeft         F
  2    119 MGPE-SL    Perc      2       2  R:D1B-L:D2B        L  1311.62   SubjLeft         C
  2    120 MGPE-SL    Perc      2       2  R:D1A-L:D2B        L  1240.37   SubjLeft         C
  2    121 MGPE-SL    Perc      2       2  R:D2A-L:D1B        L  1055.32   SubjLeft         F
  2    122 MGPE-SL    Perc      2       2  R:D1A-L:D2A        L   839.21  SubjRight         F
  2    123 MGPE-SL    Perc      2       2  R:D2B-L:D1B        L  1412.63  SubjRight         C
  2    124 MGPE-SL    Perc      2       2  R:D2A-L:D1A        L   899.24  SubjRight         C
  2    125 MGPE-SL    Perc      2       2  R:D1A-L:D2A        L  1283.78   SubjLeft         C
  2    126 MGPE-SL    Perc      2       2  R:D1B-L:D2A        L  1586.46  SubjRight         F
  2    127 MGPE-SL    Perc      2       3  R:D2A-L:D1B        L  1663.66   SubjLeft         F
  2    128 MGPE-SL    Perc      2       3  R:D2B-L:D1B        L  1335.42  SubjRight         C
  3      1 GPME-SL    Perc      1       0  R:D2B-L:D1A        S   861.28   SubjLeft         C
  3      2 GPME-SL    Perc      1       0  R:D2A-L:D1A        S  1139.76  SubjRight         F
  3      3 GPME-SL    Perc      1       0  R:D2A-L:D1A        S   979.37  SubjRight         F
  3      4 GPME-SL    Perc      1       0  R:D2A-L:D1B        S  1138.47   SubjLeft         C
  3      5 GPME-SL    Perc      1       0  R:D2B-L:D1A        S  1001.18  SubjRight         F
  3      6 GPME-SL    Perc      1       0  R:D2A-L:D1B        S  1504.01   SubjLeft         C
  3      7 GPME-SL    Perc      1       0  R:D1A-L:D2B        S  1403.10  SubjRight         C
  3      8 GPME-SL    Perc      1       0  R:D2B-L:D1A        S  1384.16   SubjLeft         C
  3      9 GPME-SL    Perc      1       0  R:D2A-L:D1A        S  1197.59  SubjRight         F
  3     10 GPME-SL    Perc      1       0  R:D1A-L:D2A        S  1492.96   SubjLeft         F
  3     11 GPME-SL    Perc      1       0  R:D2A-L:D1A        S   999.92  SubjRight         F
  3     12 GPME-SL    Perc      1       0  R:D1A-L:D2B        S  1511.08  SubjRight         C
  3     13 GPME-SL    Perc      1       0  R:D1B-L:D2B        S  1185.09   SubjLeft         F
  3     14 GPME-SL    Perc      1       0  R:D1A-L:D2A        S   963.19  SubjRight         C
  3     15 GPME-SL    Perc      1       0  R:D1B-L:D2B        S  1374.30  SubjRight         C
  3     16 GPME-SL    Perc      1       0  R:D2B-L:D1B        S  1697.89   SubjLeft         C
  3     17 GPME-SL    Perc      1       0  R:D1A-L:D2B        S  1332.76  SubjRight         C
  3     18 GPME-SL    Perc      1       0  R:D2A-L:D1B        S  1612.62   SubjLeft         C
  3     19 GPME-SL    Perc      1       1  R:D2B-L:D1B        S  1052.30  SubjRight         F
  3     20 GPME-SL    Perc      1       1  R:D1A-L:D2A        S  1022.53  SubjRight         C
  3     21 GPME-SL    Perc      1       1  R:D1B-L:D2A        S  1357.15  SubjRight         C
  3     22 GPME-SL    Perc      1       1  R:D2B-L:D1B        S   945.31   SubjLeft         C
  3     23 GPME-SL    Perc      1       1  R:D1B-L:D2B        S   838.81  SubjRight         C
  3     24 GPME-SL    Perc      1       1  R:D1B-L:D2A        S  1002.76  SubjRight         C
  3     25 GPME-SL    Perc      1       1  R:D1B-L:D2B        S  1170.53  SubjRight         C
  3     26 GPME-SL    Perc      1       1  R:D2B-L:D1B        S  1074.27   SubjLeft         C
  3     27 GPME-SL    Perc      1       1  R:D1B-L:D2A        S  1025.96  SubjRight         C
  3     28 GPME-SL    Perc      1       1  R:D1A-L:D2B        S   981.13  SubjRight         C
  3     29 GPME-SL    Perc      1       1  R:D1B-L:D2A        S  1147.91  SubjRight         C
  3     30 GPME-SL    Perc      1       2  R:D2B-L:D1A        S  1511.75  SubjRight         F
  3     31 GPME-SL    Perc      1       2  R:D2A-L:D1B        S  1397.24   SubjLeft         C
  3     32 GPME-SL    Perc      1       2  R:D1A-L:D2A        S  1206.53  SubjRight         C
  3     33 GPME-SL    Perc      2       2  R:D1B-L:D2A        S  1059.45  SubjRight         C
  3     34 GPME-SL    Perc      2       2  R:D1B-L:D2B        S  1149.81  SubjRight         C
  3     35 GPME-SL    Perc      2       2  R:D1B-L:D2A        S  1701.71  SubjRight         C
  3     36 GPME-SL    Perc      2       2  R:D2B-L:D1B        S  1193.14   SubjLeft         C
  3     37 GPME-SL    Perc      2       2  R:D2B-L:D1A        S  1476.60   SubjLeft         C
  3     38 GPME-SL    Perc      2       2  R:D2A-L:D1A        S  1567.03   SubjLeft         C
  3     39 GPME-SL    Perc      2       2  R:D2A-L:D1A        S  1442.50   SubjLeft         C
  3     40 GPME-SL    Perc      2       2  R:D2A-L:D1B        S  1093.43  SubjRight         F
  3     41 GPME-SL    Perc      2       2  R:D1A-L:D2B        S  1095.44  SubjRight         C
  3     42 GPME-SL    Perc      2       2  R:D1A-L:D2A        S   986.71  SubjRight         C
  3     43 GPME-SL    Perc      2       2  R:D1A-L:D2A        S  1423.27  SubjRight         C
  3     44 GPME-SL    Perc      2       2  R:D2B-L:D1A        S  1382.22   SubjLeft         C
  3     45 GPME-SL    Perc      2       2  R:D1B-L:D2A        S  1596.76  SubjRight         C
  3     46 GPME-SL    Perc      2       2  R:D2B-L:D1B        S  1063.58  SubjRight         F
  3     47 GPME-SL    Perc      2       2  R:D1A-L:D2B        S   954.82  SubjRight         C
  3     48 GPME-SL    Perc      2       2  R:D1B-L:D2B        S  1013.72  SubjRight         C
  3     49 GPME-SL    Perc      2       2  R:D2A-L:D1A        S  1051.31   SubjLeft         C
  3     50 GPME-SL    Perc      2       2  R:D2B-L:D1A        S  1035.65   SubjLeft         C
  3     51 GPME-SL    Perc      2       2  R:D2A-L:D1B        S   967.39  SubjRight         F
  3     52 GPME-SL    Perc      2       2  R:D2B-L:D1A        S   999.16   SubjLeft         C
  3     53 GPME-SL    Perc      2       3  R:D2B-L:D1B        S  1006.64  SubjRight         F
  3     54 GPME-SL    Perc      2       3  R:D2B-L:D1B        S  1086.48  SubjRight         F
  3     55 GPME-SL    Perc      2       3  R:D1A-L:D2A        S  1499.22  SubjRight         C
  3     56 GPME-SL    Perc      2       3  R:D1A-L:D2A        S  1957.06  SubjRight         C
  3     57 GPME-SL    Perc      2       3  R:D1B-L:D2B        S  1272.38  SubjRight         C
  3     58 GPME-SL    Perc      2       3  R:D2A-L:D1A        S  1014.12   SubjLeft         C
  3     59 GPME-SL    Perc      2       3  R:D2A-L:D1B        S  1774.42  SubjRight         F
  3     60 GPME-SL    Perc      2       3  R:D1B-L:D2B        S  1699.12  SubjRight         C
  3     61 GPME-SL    Perc      2       3  R:D2A-L:D1B        S  1244.81   SubjLeft         C
  3     62 GPME-SL    Perc      2       3  R:D1B-L:D2A        S   865.62  SubjRight         C
  3     63 GPME-SL    Perc      2       3  R:D1A-L:D2B        S  1213.34  SubjRight         C
  3     64 GPME-SL    Perc      2       3  R:D1A-L:D2B        S  1232.39  SubjRight         C
  3     65 GPME-SL    Perc      1       3  R:D1B-L:D2A        L   958.56   SubjLeft         C
  3     66 GPME-SL    Perc      1       3  R:D1A-L:D2B        L  1030.00   SubjLeft         C
  3     67 GPME-SL    Perc      1       3  R:D1A-L:D2B        L  1173.05   SubjLeft         C
  3     68 GPME-SL    Perc      1       3  R:D2A-L:D1B        L   875.77  SubjRight         C
  3     69 GPME-SL    Perc      1       3  R:D1B-L:D2B        L   960.98   SubjLeft         C
  3     70 GPME-SL    Perc      1       3  R:D1A-L:D2B        L  1466.47   SubjLeft         C
  3     71 GPME-SL    Perc      1       3  R:D2B-L:D1A        L   866.91   SubjLeft         F
  3     72 GPME-SL    Perc      1       3  R:D1A-L:D2A        L  1113.79   SubjLeft         C
  3     73 GPME-SL    Perc      1       3  R:D2A-L:D1A        L  1133.12  SubjRight         C
  3     74 GPME-SL    Perc      1       3  R:D2B-L:D1A        L  1380.91   SubjLeft         F
  3     75 GPME-SL    Perc      1       3  R:D1B-L:D2A        L  1492.44   SubjLeft         C
  3     76 GPME-SL    Perc      1       3  R:D2B-L:D1B        L  1491.68   SubjLeft         F
  3     77 GPME-SL    Perc      1       3  R:D2A-L:D1B        L  1038.33  SubjRight         C
  3     78 GPME-SL    Perc      1       3  R:D2A-L:D1A        L  1204.91  SubjRight         C
  3     79 GPME-SL    Perc      1       3  R:D1B-L:D2B        L  1652.49   SubjLeft         C
  3     80 GPME-SL    Perc      1       3  R:D1B-L:D2A        L  1498.84   SubjLeft         C
  3     81 GPME-SL    Perc      1       3  R:D1A-L:D2A        L  1758.24  SubjRight         F
  3     82 GPME-SL    Perc      1       3  R:D2B-L:D1A        L  1461.68   SubjLeft         F
  3     83 GPME-SL    Perc      1       3  R:D2A-L:D1B        L  1326.79  SubjRight         C
  3     84 GPME-SL    Perc      1       3  R:D2B-L:D1B        L  1489.40   SubjLeft         F
  3     85 GPME-SL    Perc      1       3  R:D2A-L:D1B        L  1567.25   SubjLeft         F
  3     86 GPME-SL    Perc      1       3  R:D2B-L:D1B        L   944.10  SubjRight         C
  3     87 GPME-SL    Perc      1       3  R:D2A-L:D1A        L  1765.94  SubjRight         C
  3     88 GPME-SL    Perc      1       3  R:D1B-L:D2A        L  1035.67   SubjLeft         C
  3     89 GPME-SL    Perc      1       3  R:D1A-L:D2B        L  1379.79   SubjLeft         C
  3     90 GPME-SL    Perc      1       3  R:D1A-L:D2A        L  1283.30   SubjLeft         C
  3     91 GPME-SL    Perc      1       3  R:D2A-L:D1A        L  1085.51  SubjRight         C
  3     92 GPME-SL    Perc      1       3  R:D2B-L:D1B        L  1077.79   SubjLeft         F
  3     93 GPME-SL    Perc      1       3  R:D2B-L:D1A        L  1562.56  SubjRight         C
  3     94 GPME-SL    Perc      1       3  R:D1A-L:D2A        L   876.51   SubjLeft         C
  3     95 GPME-SL    Perc      1       3  R:D1B-L:D2B        L  1334.85   SubjLeft         C
  3     96 GPME-SL    Perc      1       3  R:D1B-L:D2B        L   833.62  SubjRight         F
  3     97 GPME-SL    Perc      2       3  R:D2A-L:D1B        L  1111.42  SubjRight         C
  3     98 GPME-SL    Perc      2       3  R:D2B-L:D1A        L   854.32   SubjLeft         F
  3     99 GPME-SL    Perc      2       3  R:D1A-L:D2B        L  1004.29   SubjLeft         C
  3    100 GPME-SL    Perc      2       3  R:D1A-L:D2A        L   948.34  SubjRight         F
  3    101 GPME-SL    Perc      2       3  R:D1B-L:D2A        L  1070.33   SubjLeft         C
  3    102 GPME-SL    Perc      2       3  R:D1B-L:D2B        L   794.85  SubjRight         F
  3    103 GPME-SL    Perc      2       3  R:D1A-L:D2A        L   872.89   SubjLeft         C
  3    104 GPME-SL    Perc      2       3  R:D1B-L:D2A        L  1003.71   SubjLeft         C
  3    105 GPME-SL    Perc      2       3  R:D1A-L:D2B        L  1287.04  SubjRight         F
  3    106 GPME-SL    Perc      2       3  R:D1A-L:D2B        L  1239.67   SubjLeft         C
  3    107 GPME-SL    Perc      2       3  R:D2B-L:D1B        L  1836.01   SubjLeft         F
  3    108 GPME-SL    Perc      2       3  R:D2A-L:D1A        L  1722.93  SubjRight         C
  3    109 GPME-SL    Perc      2       3  R:D2A-L:D1A        L  1836.11   SubjLeft         F
  3    110 GPME-SL    Perc      2       3  R:D2A-L:D1A        L  1052.51  SubjRight         C
  3    111 GPME-SL    Perc      2       3  R:D2A-L:D1B        L  1453.12   SubjLeft         F
  3    112 GPME-SL    Perc      2       3  R:D1B-L:D2B        L   980.96   SubjLeft         C
  3    113 GPME-SL    Perc      2       3  R:D1A-L:D2A        L  1453.62   SubjLeft         C
  3    114 GPME-SL    Perc      2       3  R:D2B-L:D1B        L   844.10  SubjRight         C
  3    115 GPME-SL    Perc      2       3  R:D1A-L:D2B        L  1479.67   SubjLeft         C
  3    116 GPME-SL    Perc      2       3  R:D1B-L:D2A        L  1132.60  SubjRight         F
  3    117 GPME-SL    Perc      2       3  R:D1B-L:D2A        L  1705.22   SubjLeft         C
  3    118 GPME-SL    Perc      2       3  R:D1B-L:D2B        L  1647.96  SubjRight         F
  3    119 GPME-SL    Perc      2       3  R:D2B-L:D1A        L  1197.59   SubjLeft         F
  3    120 GPME-SL    Perc      2       3  R:D1A-L:D2A        L  1692.19  SubjRight         F
  3    121 GPME-SL    Perc      2       3  R:D2B-L:D1B        L  1164.16   SubjLeft         F
  3    122 GPME-SL    Perc      2       3  R:D2A-L:D1B        L  1187.10  SubjRight         C
  3    123 GPME-SL    Perc      2       3  R:D2B-L:D1A        L  1219.30   SubjLeft         F
  3    124 GPME-SL    Perc      2       3  R:D2A-L:D1A        L  1149.55  SubjRight         C
  3    125 GPME-SL    Perc      2       3  R:D2A-L:D1B        L   793.91   SubjLeft         F
  3    126 GPME-SL    Perc      2       3  R:D1B-L:D2B        L   749.08   SubjLeft         C
  3    127 GPME-SL    Perc      2       3  R:D2B-L:D1A        L  1130.40   SubjLeft         F
  3    128 GPME-SL    Perc      2       3  R:D2B-L:D1B        L  1186.28  SubjRight         C
  4      1 GMPE-SL    Perc      1       0  R:D2B-L:D1B        S  1112.72   SubjLeft         C
  4      2 GMPE-SL    Perc      1       0  R:D2A-L:D1A        S  1078.99   SubjLeft         C
  4      3 GMPE-SL    Perc      1       1  R:D2B-L:D1A        S  1547.28  SubjRight         F
  4      4 GMPE-SL    Perc      1       1  R:D2A-L:D1A        S  1588.22  SubjRight         F
  4      5 GMPE-SL    Perc      1       1  R:D1A-L:D2A        S  1317.71   SubjLeft         F
  4      6 GMPE-SL    Perc      1       1  R:D2B-L:D1A        S  1366.78   SubjLeft         C
  4      7 GMPE-SL    Perc      1       1  R:D2A-L:D1B        S  1375.95   SubjLeft         C
  4      8 GMPE-SL    Perc      1       1  R:D1A-L:D2B        S  1370.07   SubjLeft         F
  4      9 GMPE-SL    Perc      1       1  R:D2A-L:D1B        S  1512.90   SubjLeft         C
  4     10 GMPE-SL    Perc      1       1  R:D2B-L:D1A        S  1703.91  SubjRight         F
  4     11 GMPE-SL    Perc      1       1  R:D2B-L:D1B        S  1630.72   SubjLeft         C
  4     12 GMPE-SL    Perc      1       1  R:D1B-L:D2A        S  1667.92  SubjRight         C
  4     13 GMPE-SL    Perc      1       1  R:D2B-L:D1B        S  1518.28   SubjLeft         C
  4     14 GMPE-SL    Perc      1       1  R:D1B-L:D2B        S  1709.14  SubjRight         C
  4     15 GMPE-SL    Perc      1       1  R:D2A-L:D1A        S  1573.89   SubjLeft         C
  4     16 GMPE-SL    Perc      1       1  R:D2A-L:D1B        S  1454.52   SubjLeft         C
  4     17 GMPE-SL    Perc      1       1  R:D1A-L:D2A        S  1490.52  SubjRight         C
  4     18 GMPE-SL    Perc      1       1  R:D1B-L:D2B        S  1383.68  SubjRight         C
  4     19 GMPE-SL    Perc      1       1  R:D1A-L:D2A        S  1466.84  SubjRight         C
  4     20 GMPE-SL    Perc      1       1  R:D2B-L:D1B        S  1246.86  SubjRight         F
  4     21 GMPE-SL    Perc      1       1  R:D1B-L:D2A        S  1509.90  SubjRight         C
  4     22 GMPE-SL    Perc      1       1  R:D2B-L:D1A        S  1086.39   SubjLeft         C
  4     23 GMPE-SL    Perc      1       1  R:D1B-L:D2A        S  1287.30   SubjLeft         F
  4     24 GMPE-SL    Perc      1       1  R:D1B-L:D2A        S  1827.07   SubjLeft         F
  4     25 GMPE-SL    Perc      1       1  R:D1A-L:D2A        S  1447.87   SubjLeft         F
  4     26 GMPE-SL    Perc      1       1  R:D1B-L:D2B        S  1728.04  SubjRight         C
  4     27 GMPE-SL    Perc      1       1  R:D1B-L:D2B        S  1717.81  SubjRight         C
  4     28 GMPE-SL    Perc      1       1  R:D1A-L:D2B        S  1959.38  SubjRight         C
  4     29 GMPE-SL    Perc      1       1  R:D2A-L:D1B        S  1786.74   SubjLeft         C
  4     30 GMPE-SL    Perc      1       1  R:D2A-L:D1A        S  1758.76   SubjLeft         C
  4     31 GMPE-SL    Perc      1       1  R:D1A-L:D2B        S  1917.19   SubjLeft         F
  4     32 GMPE-SL    Perc      1       3  R:D1A-L:D2B        S  1533.76   SubjLeft         F
  4     33 GMPE-SL    Perc      2       3  R:D2A-L:D1B        S  1140.55   SubjLeft         C
  4     34 GMPE-SL    Perc      2       3  R:D2A-L:D1B        S  1461.33   SubjLeft         C
  4     35 GMPE-SL    Perc      2       3  R:D2A-L:D1A        S  1420.75   SubjLeft         C
  4     36 GMPE-SL    Perc      2       3  R:D1B-L:D2A        S  1314.88  SubjRight         C
  4     37 GMPE-SL    Perc      2       3  R:D2B-L:D1A        S  1667.79  SubjRight         F
  4     38 GMPE-SL    Perc      2       3  R:D2A-L:D1A        S  1515.60   SubjLeft         C
  4     39 GMPE-SL    Perc      2       3  R:D2A-L:D1A        S  1652.10   SubjLeft         C
  4     40 GMPE-SL    Perc      2       3  R:D1A-L:D2B        S  1798.13   SubjLeft         F
  4     41 GMPE-SL    Perc      2       3  R:D1A-L:D2A        S  1564.69  SubjRight         C
  4     42 GMPE-SL    Perc      2       3  R:D2B-L:D1B        S  1643.17  SubjRight         F
  4     43 GMPE-SL    Perc      2       3  R:D2A-L:D1B        S  1713.03  SubjRight         F
  4     44 GMPE-SL    Perc      2       3  R:D2A-L:D1B        S  1236.03  SubjRight         F
  4     45 GMPE-SL    Perc      2       3  R:D1B-L:D2B        S  1605.71  SubjRight         C
  4     46 GMPE-SL    Perc      2       3  R:D1B-L:D2B        S  1776.04  SubjRight         C
  4     47 GMPE-SL    Perc      2       3  R:D2B-L:D1A        S  1853.98   SubjLeft         C
  4     48 GMPE-SL    Perc      2       3  R:D2A-L:D1A        S  1967.09   SubjLeft         C
  4     49 GMPE-SL    Perc      2       3  R:D1B-L:D2B        S  1705.75   SubjLeft         F
  4     50 GMPE-SL    Perc      2       3  R:D2B-L:D1B        S  1642.50   SubjLeft         C
  4     51 GMPE-SL    Perc      2       3  R:D1B-L:D2A        S  1842.32   SubjLeft         F
  4     52 GMPE-SL    Perc      2       3  R:D1A-L:D2B        S  1739.75   SubjLeft         F
  4     53 GMPE-SL    Perc      2       4  R:D1A-L:D2B        S  1638.46  SubjRight         C
  4     54 GMPE-SL    Perc      2       4  R:D1A-L:D2A        S  1634.58  SubjRight         C
  4     55 GMPE-SL    Perc      2       4  R:D1B-L:D2A        S  1436.20  SubjRight         C
  4     56 GMPE-SL    Perc      2       5  R:D2B-L:D1A        S  1014.23  SubjRight         F
  4     57 GMPE-SL    Perc      2       5  R:D1B-L:D2B        S  1360.90  SubjRight         C
  4     58 GMPE-SL    Perc      2       5  R:D1A-L:D2B        S  1306.76   SubjLeft         F
  4     59 GMPE-SL    Perc      2       5  R:D1A-L:D2A        S   855.77   SubjLeft         F
  4     60 GMPE-SL    Perc      2       5  R:D2B-L:D1B        S  1508.64   SubjLeft         C
  4     61 GMPE-SL    Perc      2       5  R:D2B-L:D1A        S  1671.09   SubjLeft         C
  4     62 GMPE-SL    Perc      2       5  R:D1A-L:D2A        S  1882.23   SubjLeft         F
  4     63 GMPE-SL    Perc      2       5  R:D1B-L:D2A        S  1769.67  SubjRight         C
  4     64 GMPE-SL    Perc      2       5  R:D2B-L:D1B        S  1999.64  SubjRight         F
  4     65 GMPE-SL    Perc      1       5  R:D2B-L:D1A        L  1628.14  SubjRight         C
  4     66 GMPE-SL    Perc      1       5  R:D2B-L:D1B        L  1678.97  SubjRight         C
  4     67 GMPE-SL    Perc      1       5  R:D1B-L:D2A        L  1447.56   SubjLeft         C
  4     68 GMPE-SL    Perc      1       5  R:D1A-L:D2A        L  1414.31   SubjLeft         C
  4     69 GMPE-SL    Perc      1       5  R:D2A-L:D1A        L  1859.77  SubjRight         C
  4     70 GMPE-SL    Perc      1       5  R:D1B-L:D2A        L  1336.30   SubjLeft         C
  4     71 GMPE-SL    Perc      1       5  R:D1B-L:D2A        L  1803.13  SubjRight         F
  4     72 GMPE-SL    Perc      1       5  R:D1B-L:D2B        L  1872.79   SubjLeft         C
  4     73 GMPE-SL    Perc      1       5  R:D1A-L:D2B        L  1953.63  SubjRight         F
  4     74 GMPE-SL    Perc      1       5  R:D2A-L:D1B        L  1418.93  SubjRight         C
  4     75 GMPE-SL    Perc      1       5  R:D1A-L:D2B        L  1859.88  SubjRight         F
  4     76 GMPE-SL    Perc      1       6  R:D2A-L:D1B        L  1699.84  SubjRight         C
  4     77 GMPE-SL    Perc      1       6  R:D1B-L:D2B        L  1305.63   SubjLeft         C
  4     78 GMPE-SL    Perc      1       6  R:D2A-L:D1A        L  1581.44  SubjRight         C
  4     79 GMPE-SL    Perc      1       7  R:D1B-L:D2B        L  1886.56  SubjRight         F
  4     80 GMPE-SL    Perc      1       8  R:D2B-L:D1B        L  1812.28  SubjRight         C
  4     81 GMPE-SL    Perc      1       9  R:D1A-L:D2A        L  1494.74   SubjLeft         C
  4     82 GMPE-SL    Perc      1       9  R:D1A-L:D2B        L  1515.77   SubjLeft         C
  4     83 GMPE-SL    Perc      1       9  R:D2A-L:D1A        L  1509.82   SubjLeft         F
  4     84 GMPE-SL    Perc      1       9  R:D2B-L:D1B        L  1789.80   SubjLeft         F
  4     85 GMPE-SL    Perc      1       9  R:D2A-L:D1B        L  1555.64   SubjLeft         F
  4     86 GMPE-SL    Perc      1       9  R:D1A-L:D2B        L  1496.06   SubjLeft         C
  4     87 GMPE-SL    Perc      1       9  R:D2B-L:D1B        L  1548.07   SubjLeft         F
  4     88 GMPE-SL    Perc      1       9  R:D2B-L:D1A        L  1555.27  SubjRight         C
  4     89 GMPE-SL    Perc      1       9  R:D1B-L:D2B        L  1591.85   SubjLeft         C
  4     90 GMPE-SL    Perc      1       9  R:D2A-L:D1A        L  1204.68   SubjLeft         F
  4     91 GMPE-SL    Perc      1       9  R:D1A-L:D2A        L  1475.00   SubjLeft         C
  4     92 GMPE-SL    Perc      1       9  R:D1B-L:D2A        L  1574.76   SubjLeft         C
  4     93 GMPE-SL    Perc      1       9  R:D2A-L:D1B        L  1514.39  SubjRight         C
  4     94 GMPE-SL    Perc      1       9  R:D1A-L:D2A        L  1139.63   SubjLeft         C
  4     95 GMPE-SL    Perc      1       9  R:D2B-L:D1A        L  1409.59  SubjRight         C
  4     96 GMPE-SL    Perc      1       9  R:D2B-L:D1A        L  1553.28  SubjRight         C
  4     97 GMPE-SL    Perc      2       9  R:D2B-L:D1A        L  1395.26  SubjRight         C
  4     98 GMPE-SL    Perc      2       9  R:D1B-L:D2B        L  1996.06   SubjLeft         C
  4     99 GMPE-SL    Perc      2      10  R:D1A-L:D2A        L  1934.02  SubjRight         F
  4    100 GMPE-SL    Perc      2      10  R:D2B-L:D1A        L  1811.17  SubjRight         C
  4    101 GMPE-SL    Perc      2      10  R:D1A-L:D2A        L  1360.90   SubjLeft         C
  4    102 GMPE-SL    Perc      2      10  R:D2B-L:D1B        L  1557.43  SubjRight         C
  4    103 GMPE-SL    Perc      2      10  R:D2A-L:D1A        L  1270.85  SubjRight         C
  4    104 GMPE-SL    Perc      2      10  R:D2B-L:D1B        L  1353.67   SubjLeft         F
  4    105 GMPE-SL    Perc      2      10  R:D2A-L:D1B        L  1821.65  SubjRight         C
  4    106 GMPE-SL    Perc      2      10  R:D2B-L:D1B        L  1437.68  SubjRight         C
  4    107 GMPE-SL    Perc      2      10  R:D2A-L:D1A        L  1872.58  SubjRight         C
  4    108 GMPE-SL    Perc      2      10  R:D1A-L:D2A        L  1329.69   SubjLeft         C
  4    109 GMPE-SL    Perc      2      10  R:D1B-L:D2B        L  1283.03   SubjLeft         C
  4    110 GMPE-SL    Perc      2      10  R:D1B-L:D2A        L  1116.39   SubjLeft         C
  4    111 GMPE-SL    Perc      2      10  R:D1A-L:D2A        L  1132.98   SubjLeft         C
  4    112 GMPE-SL    Perc      2      10  R:D2A-L:D1B        L  1498.51   SubjLeft         F
  4    113 GMPE-SL    Perc      2      10  R:D1B-L:D2A        L  1693.53   SubjLeft         C
  4    114 GMPE-SL    Perc      2      10  R:D2A-L:D1B        L  1639.19  SubjRight         C
  4    115 GMPE-SL    Perc      2      10  R:D2B-L:D1B        L  1919.59   SubjLeft         F
  4    116 GMPE-SL    Perc      2      10  R:D1B-L:D2A        L  1750.63  SubjRight         F
  4    117 GMPE-SL    Perc      2      10  R:D2A-L:D1A        L  1264.22   SubjLeft         F
  4    118 GMPE-SL    Perc      2      10  R:D1A-L:D2B        L  1422.41  SubjRight         F
  4    119 GMPE-SL    Perc      2      10  R:D1B-L:D2B        L  1480.07   SubjLeft         C
  4    120 GMPE-SL    Perc      2      10  R:D1B-L:D2A        L  1580.54   SubjLeft         C
  4    121 GMPE-SL    Perc      2      10  R:D2B-L:D1A        L  1463.23  SubjRight         C
  4    122 GMPE-SL    Perc      2      10  R:D1A-L:D2B        L  1574.07   SubjLeft         C
  4    123 GMPE-SL    Perc      2      10  R:D2B-L:D1A        L  1879.50   SubjLeft         F
  4    124 GMPE-SL    Perc      2      10  R:D1A-L:D2B        L  1621.44  SubjRight         F
  4    125 GMPE-SL    Perc      2      10  R:D1B-L:D2B        L  1736.03   SubjLeft         C
  4    126 GMPE-SL    Perc      2      10  R:D2A-L:D1B        L  1730.77   SubjLeft         F
  4    127 GMPE-SL    Perc      2      10  R:D2A-L:D1A        L  1888.18  SubjRight         C
  4    128 GMPE-SL    Perc      2      10  R:D1A-L:D2B        L  1905.15  SubjRight         F
  5      1 PMGE-SL    Perc      1       0  R:D2B-L:D1B        S  1008.96  SubjRight         F
  5      2 PMGE-SL    Perc      1       0  R:D1A-L:D2B        S   920.55  SubjRight         C
  5      3 PMGE-SL    Perc      1       0  R:D1B-L:D2B        S   962.74  SubjRight         C
  5      4 PMGE-SL    Perc      1       0  R:D2A-L:D1A        S  1033.51  SubjRight         F
  5      5 PMGE-SL    Perc      1       0  R:D1A-L:D2B        S   699.00  SubjRight         C
  5      6 PMGE-SL    Perc      1       0  R:D2B-L:D1A        S  1719.41  SubjRight         F
  5      7 PMGE-SL    Perc      1       0  R:D2A-L:D1B        S   983.70  SubjRight         F
  5      8 PMGE-SL    Perc      1       0  R:D2A-L:D1B        S   796.83  SubjRight         F
  5      9 PMGE-SL    Perc      1       0  R:D2B-L:D1A        S  1425.31  SubjRight         F
  5     10 PMGE-SL    Perc      1       0  R:D2B-L:D1B        S   786.10  SubjRight         F
  5     11 PMGE-SL    Perc      1       0  R:D2B-L:D1A        S  1292.57  SubjRight         F
  5     12 PMGE-SL    Perc      1       0  R:D1B-L:D2B        S  1266.75  SubjRight         C
  5     13 PMGE-SL    Perc      1       0  R:D2B-L:D1B        S  1464.75  SubjRight         F
  5     14 PMGE-SL    Perc      1       0  R:D1B-L:D2A        S  1024.33  SubjRight         C
  5     15 PMGE-SL    Perc      1       0  R:D2B-L:D1B        S  1178.93  SubjRight         F
  5     16 PMGE-SL    Perc      1       0  R:D1A-L:D2B        S  1955.36  SubjRight         C
  5     17 PMGE-SL    Perc      1       0  R:D1A-L:D2A        S  1494.80  SubjRight         C
  5     18 PMGE-SL    Perc      1       0  R:D2A-L:D1B        S  1546.44  SubjRight         F
  5     19 PMGE-SL    Perc      1       0  R:D2A-L:D1A        S   939.52  SubjRight         F
  5     20 PMGE-SL    Perc      1       0  R:D1B-L:D2B        S  1147.82  SubjRight         C
  5     21 PMGE-SL    Perc      1       0  R:D1B-L:D2A        S  1637.26  SubjRight         C
  5     22 PMGE-SL    Perc      1       0  R:D1A-L:D2A        S  1625.48  SubjRight         C
  5     23 PMGE-SL    Perc      1       0  R:D1B-L:D2A        S  1038.00  SubjRight         C
  5     24 PMGE-SL    Perc      1       0  R:D1A-L:D2A        S   726.21  SubjRight         C
  5     25 PMGE-SL    Perc      1       0  R:D1B-L:D2B        S  1548.39  SubjRight         C
  5     26 PMGE-SL    Perc      1       1  R:D1A-L:D2B        S  1115.59   SubjLeft         F
  5     27 PMGE-SL    Perc      1       1  R:D2A-L:D1A        S   714.58   SubjLeft         C
  5     28 PMGE-SL    Perc      1       1  R:D2B-L:D1A        S   657.45   SubjLeft         C
  5     29 PMGE-SL    Perc      1       1  R:D1B-L:D2A        S   607.40   SubjLeft         F
  5     30 PMGE-SL    Perc      1       1  R:D1A-L:D2A        S  1018.89   SubjLeft         F
  5     31 PMGE-SL    Perc      1       1  R:D2A-L:D1B        S  1913.82  SubjRight         F
  5     32 PMGE-SL    Perc      1       1  R:D2A-L:D1A        S   575.86  SubjRight         F
  5     33 PMGE-SL    Perc      2       1  R:D2B-L:D1A        S  1890.87   SubjLeft         C
  5     34 PMGE-SL    Perc      2       1  R:D2B-L:D1A        S  1278.87  SubjRight         F
  5     35 PMGE-SL    Perc      2       1  R:D2A-L:D1A        S  1059.72  SubjRight         F
  5     36 PMGE-SL    Perc      2       1  R:D1A-L:D2A        S  1353.35  SubjRight         C
  5     37 PMGE-SL    Perc      2       1  R:D2A-L:D1B        S  1190.40  SubjRight         F
  5     38 PMGE-SL    Perc      2       1  R:D1A-L:D2A        S  1062.04  SubjRight         C
  5     39 PMGE-SL    Perc      2       1  R:D1A-L:D2A        S  1145.32  SubjRight         C
  5     40 PMGE-SL    Perc      2       1  R:D2A-L:D1B        S  1254.16  SubjRight         F
  5     41 PMGE-SL    Perc      2       1  R:D2B-L:D1B        S  1867.99  SubjRight         F
  5     42 PMGE-SL    Perc      2       1  R:D1A-L:D2A        S  1092.53  SubjRight         C
  5     43 PMGE-SL    Perc      2       1  R:D1A-L:D2B        S  1182.35  SubjRight         C
  5     44 PMGE-SL    Perc      2       1  R:D2B-L:D1A        S  1119.57  SubjRight         F
  5     45 PMGE-SL    Perc      2       1  R:D1B-L:D2A        S  1484.61  SubjRight         C
  5     46 PMGE-SL    Perc      2       1  R:D2B-L:D1B        S   668.90  SubjRight         F
  5     47 PMGE-SL    Perc      2       1  R:D1B-L:D2B        S  1012.33  SubjRight         C
  5     48 PMGE-SL    Perc      2       1  R:D1B-L:D2A        S   983.20  SubjRight         C
  5     49 PMGE-SL    Perc      2       1  R:D2A-L:D1A        S  1332.03  SubjRight         F
  5     50 PMGE-SL    Perc      2       1  R:D1A-L:D2B        S  1140.10  SubjRight         C
  5     51 PMGE-SL    Perc      2       1  R:D2A-L:D1A        S  1097.30  SubjRight         F
  5     52 PMGE-SL    Perc      2       1  R:D2B-L:D1B        S  1233.69  SubjRight         F
  5     53 PMGE-SL    Perc      2       1  R:D1A-L:D2B        S  1062.59  SubjRight         C
  5     54 PMGE-SL    Perc      2       1  R:D2A-L:D1B        S  1096.19  SubjRight         F
  5     55 PMGE-SL    Perc      2       1  R:D1A-L:D2B        S   834.99  SubjRight         C
  5     56 PMGE-SL    Perc      2       1  R:D2B-L:D1B        S  1239.75  SubjRight         F
  5     57 PMGE-SL    Perc      2       1  R:D1B-L:D2B        S  1248.42  SubjRight         C
  5     58 PMGE-SL    Perc      2       1  R:D2A-L:D1B        S  1355.22  SubjRight         F
  5     59 PMGE-SL    Perc      2       1  R:D1B-L:D2A        S  1209.39  SubjRight         C
  5     60 PMGE-SL    Perc      2       1  R:D1B-L:D2A        S  1200.27  SubjRight         C
  5     61 PMGE-SL    Perc      2       1  R:D2B-L:D1A        S  1646.57  SubjRight         F
  5     62 PMGE-SL    Perc      2       1  R:D1B-L:D2B        S  1285.70  SubjRight         C
  5     63 PMGE-SL    Perc      2       1  R:D2A-L:D1A        S  1623.20  SubjRight         F
  5     64 PMGE-SL    Perc      2       1  R:D1B-L:D2B        S  1305.33  SubjRight         C
  5     65 PMGE-SL    Perc      1       1  R:D1A-L:D2B        L  1392.44   SubjLeft         C
  5     66 PMGE-SL    Perc      1       1  R:D2B-L:D1A        L   877.43  SubjRight         C
  5     67 PMGE-SL    Perc      1       1  R:D2A-L:D1A        L   920.97  SubjRight         C
  5     68 PMGE-SL    Perc      1       1  R:D1A-L:D2B        L   959.56   SubjLeft         C
  5     69 PMGE-SL    Perc      1       1  R:D1A-L:D2A        L  1510.72   SubjLeft         C
  5     70 PMGE-SL    Perc      1       1  R:D1B-L:D2B        L  1519.97  SubjRight         F
  5     71 PMGE-SL    Perc      1       1  R:D2A-L:D1A        L   974.41   SubjLeft         F
  5     72 PMGE-SL    Perc      1       1  R:D1B-L:D2B        L  1274.54   SubjLeft         C
  5     73 PMGE-SL    Perc      1       1  R:D1A-L:D2A        L  1408.62   SubjLeft         C
  5     74 PMGE-SL    Perc      1       1  R:D1A-L:D2B        L  1068.87   SubjLeft         C
  5     75 PMGE-SL    Perc      1       1  R:D1A-L:D2B        L  1073.13   SubjLeft         C
  5     76 PMGE-SL    Perc      1       1  R:D1A-L:D2A        L  1132.24   SubjLeft         C
  5     77 PMGE-SL    Perc      1       1  R:D2B-L:D1A        L  1094.70   SubjLeft         F
  5     78 PMGE-SL    Perc      1       1  R:D1A-L:D2A        L  1075.47   SubjLeft         C
  5     79 PMGE-SL    Perc      1       1  R:D2B-L:D1B        L  1273.78  SubjRight         C
  5     80 PMGE-SL    Perc      1       1  R:D2B-L:D1B        L  1304.37   SubjLeft         F
  5     81 PMGE-SL    Perc      1       1  R:D2A-L:D1A        L  1440.14   SubjLeft         F
  5     82 PMGE-SL    Perc      1       1  R:D1B-L:D2A        L  1234.61  SubjRight         F
  5     83 PMGE-SL    Perc      1       1  R:D1B-L:D2B        L  1229.76   SubjLeft         C
  5     84 PMGE-SL    Perc      1       1  R:D2B-L:D1B        L  1191.11   SubjLeft         F
  5     85 PMGE-SL    Perc      1       1  R:D2A-L:D1A        L  1290.74  SubjRight         C
  5     86 PMGE-SL    Perc      1       1  R:D1B-L:D2A        L  1157.28   SubjLeft         C
  5     87 PMGE-SL    Perc      1       1  R:D2B-L:D1A        L  1026.56   SubjLeft         F
  5     88 PMGE-SL    Perc      1       1  R:D1B-L:D2B        L  1210.38   SubjLeft         C
  5     89 PMGE-SL    Perc      1       1  R:D1B-L:D2A        L  1334.06   SubjLeft         C
  5     90 PMGE-SL    Perc      1       1  R:D2A-L:D1B        L  1307.71  SubjRight         C
  5     91 PMGE-SL    Perc      1       1  R:D2B-L:D1A        L  1436.41  SubjRight         C
  5     92 PMGE-SL    Perc      1       1  R:D2A-L:D1B        L  1423.85  SubjRight         C
  5     93 PMGE-SL    Perc      1       1  R:D2A-L:D1B        L   786.38   SubjLeft         F
  5     94 PMGE-SL    Perc      1       1  R:D2B-L:D1B        L  1841.19   SubjLeft         F
  5     95 PMGE-SL    Perc      1       1  R:D1B-L:D2A        L  1590.83   SubjLeft         C
  5     96 PMGE-SL    Perc      1       1  R:D2A-L:D1B        L  1266.31   SubjLeft         F
  5     97 PMGE-SL    Perc      2       1  R:D2B-L:D1B        L  1216.95  SubjRight         C
  5     98 PMGE-SL    Perc      2       1  R:D2A-L:D1B        L  1400.16  SubjRight         C
  5     99 PMGE-SL    Perc      2       1  R:D1A-L:D2A        L   967.95   SubjLeft         C
  5    100 PMGE-SL    Perc      2       1  R:D1A-L:D2A        L  1165.88   SubjLeft         C
  5    101 PMGE-SL    Perc      2       1  R:D1B-L:D2B        L   684.33  SubjRight         F
  5    102 PMGE-SL    Perc      2       1  R:D1B-L:D2A        L  1030.53   SubjLeft         C
  5    103 PMGE-SL    Perc      2       1  R:D2A-L:D1A        L   974.13   SubjLeft         F
  5    104 PMGE-SL    Perc      2       1  R:D1B-L:D2A        L   921.05   SubjLeft         C
  5    105 PMGE-SL    Perc      2       1  R:D2A-L:D1A        L  1204.56  SubjRight         C
  5    106 PMGE-SL    Perc      2       1  R:D2B-L:D1B        L  1238.71   SubjLeft         F
  5    107 PMGE-SL    Perc      2       1  R:D1A-L:D2B        L  1508.38   SubjLeft         C
  5    108 PMGE-SL    Perc      2       1  R:D1A-L:D2A        L  1250.54   SubjLeft         C
  5    109 PMGE-SL    Perc      2       1  R:D2A-L:D1B        L  1260.36   SubjLeft         F
  5    110 PMGE-SL    Perc      2       1  R:D1B-L:D2A        L  1098.06   SubjLeft         C
  5    111 PMGE-SL    Perc      2       1  R:D1B-L:D2B        L  1194.76   SubjLeft         C
  5    112 PMGE-SL    Perc      2       1  R:D2B-L:D1A        L  1327.95   SubjLeft         F
  5    113 PMGE-SL    Perc      2       1  R:D1B-L:D2A        L  1034.73   SubjLeft         C
  5    114 PMGE-SL    Perc      2       1  R:D1B-L:D2B        L  1118.36  SubjRight         F
  5    115 PMGE-SL    Perc      2       1  R:D2B-L:D1A        L   785.80  SubjRight         C
  5    116 PMGE-SL    Perc      2       1  R:D2B-L:D1B        L   712.87  SubjRight         C
  5    117 PMGE-SL    Perc      2       1  R:D2A-L:D1A        L  1370.50   SubjLeft         F
  5    118 PMGE-SL    Perc      2       1  R:D2B-L:D1A        L   983.08  SubjRight         C
  5    119 PMGE-SL    Perc      2       1  R:D2B-L:D1A        L  1180.61   SubjLeft         F
  5    120 PMGE-SL    Perc      2       1  R:D1B-L:D2B        L   951.92   SubjLeft         C
  5    121 PMGE-SL    Perc      2       1  R:D1A-L:D2B        L  1032.56   SubjLeft         C
  5    122 PMGE-SL    Perc      2       1  R:D2A-L:D1B        L   862.81   SubjLeft         F
  5    123 PMGE-SL    Perc      2       1  R:D2A-L:D1B        L  1162.58   SubjLeft         F
  5    124 PMGE-SL    Perc      2       1  R:D2A-L:D1A        L  1174.71   SubjLeft         F
  5    125 PMGE-SL    Perc      2       1  R:D1A-L:D2A        L  1094.90  SubjRight         F
  5    126 PMGE-SL    Perc      2       1  R:D2B-L:D1B        L   853.83  SubjRight         C
  5    127 PMGE-SL    Perc      2       1  R:D1A-L:D2B        L  1269.83  SubjRight         F
  5    128 PMGE-SL    Perc      2       1  R:D1A-L:D2B        L   883.63  SubjRight         F
  6      1 PGME-SL    Perc      1       0  R:D2B-L:D1B        S  1048.10   SubjLeft         C
  6      2 PGME-SL    Perc      1       0  R:D1B-L:D2A        S  1081.10  SubjRight         C
  6      3 PGME-SL    Perc      1       0  R:D1B-L:D2B        S  1137.27  SubjRight         C
  6      4 PGME-SL    Perc      1       0  R:D2B-L:D1A        S   965.60   SubjLeft         C
  6      5 PGME-SL    Perc      1       0  R:D2A-L:D1B        S  1206.53   SubjLeft         C
  6      6 PGME-SL    Perc      1       0  R:D2B-L:D1B        S  1344.99   SubjLeft         C
  6      7 PGME-SL    Perc      1       0  R:D2B-L:D1A        S  1356.60   SubjLeft         C
  6      8 PGME-SL    Perc      1       0  R:D1A-L:D2A        S  1735.83  SubjRight         C
  6      9 PGME-SL    Perc      1       0  R:D2B-L:D1A        S  1212.09   SubjLeft         C
  6     10 PGME-SL    Perc      1       0  R:D1A-L:D2A        S  1207.64  SubjRight         C
  6     11 PGME-SL    Perc      1       0  R:D1B-L:D2A        S  1222.92  SubjRight         C
  6     12 PGME-SL    Perc      1       0  R:D1B-L:D2A        S  1455.09  SubjRight         C
  6     13 PGME-SL    Perc      1       0  R:D1B-L:D2B        S  1387.94  SubjRight         C
  6     14 PGME-SL    Perc      1       0  R:D2B-L:D1A        S   800.39   SubjLeft         C
  6     15 PGME-SL    Perc      1       0  R:D2A-L:D1B        S   996.10   SubjLeft         C
  6     16 PGME-SL    Perc      1       0  R:D2B-L:D1B        S  1248.89   SubjLeft         C
  6     17 PGME-SL    Perc      1       0  R:D1A-L:D2A        S  1216.53   SubjLeft         F
  6     18 PGME-SL    Perc      1       0  R:D1A-L:D2B        S  1191.97   SubjLeft         F
  6     19 PGME-SL    Perc      1       0  R:D2A-L:D1B        S  1195.25   SubjLeft         C
  6     20 PGME-SL    Perc      1       0  R:D1A-L:D2B        S  1149.39  SubjRight         C
  6     21 PGME-SL    Perc      1       0  R:D2A-L:D1A        S  1175.00   SubjLeft         C
  6     22 PGME-SL    Perc      1       0  R:D1B-L:D2B        S   895.22  SubjRight         C
  6     23 PGME-SL    Perc      1       0  R:D1A-L:D2A        S   970.50  SubjRight         C
  6     24 PGME-SL    Perc      1       0  R:D2A-L:D1A        S  1027.37   SubjLeft         C
  6     25 PGME-SL    Perc      1       0  R:D2B-L:D1B        S   979.66   SubjLeft         C
  6     26 PGME-SL    Perc      1       0  R:D1A-L:D2B        S   860.41  SubjRight         C
  6     27 PGME-SL    Perc      1       0  R:D1B-L:D2A        S  1203.52  SubjRight         C
  6     28 PGME-SL    Perc      1       0  R:D1B-L:D2B        S  1275.89   SubjLeft         F
  6     29 PGME-SL    Perc      1       0  R:D1A-L:D2B        S  1123.05  SubjRight         C
  6     30 PGME-SL    Perc      1       0  R:D2A-L:D1B        S   966.80   SubjLeft         C
  6     31 PGME-SL    Perc      1       0  R:D2A-L:D1A        S   983.94  SubjRight         F
  6     32 PGME-SL    Perc      1       0  R:D2A-L:D1A        S   863.60   SubjLeft         C
  6     33 PGME-SL    Perc      2       0  R:D1B-L:D2B        S  1017.37   SubjLeft         F
  6     34 PGME-SL    Perc      2       0  R:D2B-L:D1A        S  1087.75   SubjLeft         C
  6     35 PGME-SL    Perc      2       0  R:D2A-L:D1B        S   918.04   SubjLeft         C
  6     36 PGME-SL    Perc      2       0  R:D2B-L:D1B        S  1066.22   SubjLeft         C
  6     37 PGME-SL    Perc      2       0  R:D2B-L:D1B        S  1132.64   SubjLeft         C
  6     38 PGME-SL    Perc      2       0  R:D1B-L:D2B        S  1394.90  SubjRight         C
  6     39 PGME-SL    Perc      2       0  R:D2B-L:D1A        S   860.57   SubjLeft         C
  6     40 PGME-SL    Perc      2       0  R:D2B-L:D1B        S   798.49   SubjLeft         C
  6     41 PGME-SL    Perc      2       0  R:D1A-L:D2A        S  1213.08  SubjRight         C
  6     42 PGME-SL    Perc      2       0  R:D1B-L:D2A        S  1225.57  SubjRight         C
  6     43 PGME-SL    Perc      2       0  R:D2A-L:D1B        S  1166.49   SubjLeft         C
  6     44 PGME-SL    Perc      2       0  R:D1A-L:D2B        S  1111.00  SubjRight         C
  6     45 PGME-SL    Perc      2       0  R:D2A-L:D1A        S  1217.50   SubjLeft         C
  6     46 PGME-SL    Perc      2       0  R:D2B-L:D1A        S  1093.55  SubjRight         F
  6     47 PGME-SL    Perc      2       0  R:D1A-L:D2B        S  1087.19  SubjRight         C
  6     48 PGME-SL    Perc      2       0  R:D2A-L:D1A        S  1017.70   SubjLeft         C
  6     49 PGME-SL    Perc      2       0  R:D1B-L:D2B        S   979.95  SubjRight         C
  6     50 PGME-SL    Perc      2       0  R:D2A-L:D1B        S  1083.55  SubjRight         F
  6     51 PGME-SL    Perc      2       0  R:D1A-L:D2A        S  1170.64   SubjLeft         F
  6     52 PGME-SL    Perc      2       0  R:D1B-L:D2A        S   882.68  SubjRight         C
  6     53 PGME-SL    Perc      2       0  R:D2A-L:D1A        S   895.00   SubjLeft         C
  6     54 PGME-SL    Perc      2       0  R:D2B-L:D1A        S   998.45   SubjLeft         C
  6     55 PGME-SL    Perc      2       0  R:D1A-L:D2B        S  1023.13  SubjRight         C
  6     56 PGME-SL    Perc      2       0  R:D1B-L:D2A        S   977.03   SubjLeft         F
  6     57 PGME-SL    Perc      2       0  R:D2B-L:D1B        S  1100.17  SubjRight         F
  6     58 PGME-SL    Perc      2       0  R:D2A-L:D1B        S  1080.13   SubjLeft         C
  6     59 PGME-SL    Perc      2       0  R:D2A-L:D1A        S  1168.36   SubjLeft         C
  6     60 PGME-SL    Perc      2       0  R:D1A-L:D2A        S  1232.81  SubjRight         C
  6     61 PGME-SL    Perc      2       0  R:D1A-L:D2B        S  1140.20  SubjRight         C
  6     62 PGME-SL    Perc      2       0  R:D1B-L:D2B        S  1348.88   SubjLeft         F
  6     63 PGME-SL    Perc      2       0  R:D1B-L:D2A        S  1192.08  SubjRight         C
  6     64 PGME-SL    Perc      2       0  R:D1A-L:D2A        S   946.88  SubjRight         C
  6     65 PGME-SL    Perc      1       0  R:D1A-L:D2B        L   841.16   SubjLeft         C
  6     66 PGME-SL    Perc      1       0  R:D1A-L:D2A        L  1058.08   SubjLeft         C
  6     67 PGME-SL    Perc      1       0  R:D2B-L:D1B        L  1060.88   SubjLeft         F
  6     68 PGME-SL    Perc      1       0  R:D2A-L:D1B        L  1048.03  SubjRight         C
  6     69 PGME-SL    Perc      1       0  R:D2A-L:D1A        L  1121.64  SubjRight         C
  6     70 PGME-SL    Perc      1       0  R:D2A-L:D1B        L   853.18  SubjRight         C
  6     71 PGME-SL    Perc      1       0  R:D2A-L:D1A        L   980.36  SubjRight         C
  6     72 PGME-SL    Perc      1       0  R:D1A-L:D2A        L  1034.05  SubjRight         F
  6     73 PGME-SL    Perc      1       0  R:D2A-L:D1A        L  1199.21   SubjLeft         F
  6     74 PGME-SL    Perc      1       0  R:D2B-L:D1B        L  1270.56   SubjLeft         F
  6     75 PGME-SL    Perc      1       0  R:D2B-L:D1A        L   966.64  SubjRight         C
  6     76 PGME-SL    Perc      1       0  R:D1B-L:D2B        L  1068.42   SubjLeft         C
  6     77 PGME-SL    Perc      1       0  R:D2A-L:D1B        L  1125.17   SubjLeft         F
  6     78 PGME-SL    Perc      1       0  R:D2B-L:D1A        L  1157.30   SubjLeft         F
  6     79 PGME-SL    Perc      1       0  R:D1A-L:D2B        L  1132.21   SubjLeft         C
  6     80 PGME-SL    Perc      1       0  R:D2B-L:D1A        L  1364.88  SubjRight         C
  6     81 PGME-SL    Perc      1       0  R:D1B-L:D2A        L   999.12   SubjLeft         C
  6     82 PGME-SL    Perc      1       0  R:D2A-L:D1B        L  1059.61   SubjLeft         F
  6     83 PGME-SL    Perc      1       0  R:D2A-L:D1A        L  1158.23  SubjRight         C
  6     84 PGME-SL    Perc      1       0  R:D1A-L:D2A        L   897.81  SubjRight         F
  6     85 PGME-SL    Perc      1       0  R:D1A-L:D2A        L  1165.15  SubjRight         F
  6     86 PGME-SL    Perc      1       0  R:D1B-L:D2A        L   912.07   SubjLeft         C
  6     87 PGME-SL    Perc      1       0  R:D2B-L:D1A        L  1095.43  SubjRight         C
  6     88 PGME-SL    Perc      1       0  R:D1B-L:D2A        L   778.74   SubjLeft         C
  6     89 PGME-SL    Perc      1       0  R:D1B-L:D2B        L  1019.47   SubjLeft         C
  6     90 PGME-SL    Perc      1       0  R:D1A-L:D2B        L  1076.69   SubjLeft         C
  6     91 PGME-SL    Perc      1       0  R:D1B-L:D2B        L  1053.38   SubjLeft         C
  6     92 PGME-SL    Perc      1       0  R:D1B-L:D2A        L  1295.20   SubjLeft         C
  6     93 PGME-SL    Perc      1       0  R:D1B-L:D2B        L   995.99   SubjLeft         C
  6     94 PGME-SL    Perc      1       0  R:D2B-L:D1B        L   780.74   SubjLeft         F
  6     95 PGME-SL    Perc      1       0  R:D2B-L:D1B        L   964.35  SubjRight         C
  6     96 PGME-SL    Perc      1       0  R:D1A-L:D2B        L   743.56   SubjLeft         C
  6     97 PGME-SL    Perc      2       0  R:D1A-L:D2B        L   831.05   SubjLeft         C
  6     98 PGME-SL    Perc      2       0  R:D2B-L:D1A        L   760.66   SubjLeft         F
  6     99 PGME-SL    Perc      2       0  R:D1B-L:D2A        L   815.90   SubjLeft         C
  6    100 PGME-SL    Perc      2       0  R:D2B-L:D1A        L   808.86  SubjRight         C
  6    101 PGME-SL    Perc      2       0  R:D1B-L:D2B        L   834.87   SubjLeft         C
  6    102 PGME-SL    Perc      2       0  R:D2B-L:D1B        L   714.57   SubjLeft         F
  6    103 PGME-SL    Perc      2       0  R:D2A-L:D1A        L   831.95   SubjLeft         F
  6    104 PGME-SL    Perc      2       0  R:D1A-L:D2B        L  1072.66  SubjRight         F
  6    105 PGME-SL    Perc      2       0  R:D2A-L:D1A        L   932.91  SubjRight         C
  6    106 PGME-SL    Perc      2       0  R:D2A-L:D1B        L   914.90  SubjRight         C
  6    107 PGME-SL    Perc      2       0  R:D1B-L:D2B        L  1077.89   SubjLeft         C
  6    108 PGME-SL    Perc      2       0  R:D2B-L:D1B        L  1242.98  SubjRight         C
  6    109 PGME-SL    Perc      2       0  R:D1A-L:D2B        L   926.86  SubjRight         F
  6    110 PGME-SL    Perc      2       0  R:D1B-L:D2A        L   734.56   SubjLeft         C
  6    111 PGME-SL    Perc      2       0  R:D1B-L:D2B        L   800.49   SubjLeft         C
  6    112 PGME-SL    Perc      2       0  R:D2A-L:D1B        L   770.95  SubjRight         C
  6    113 PGME-SL    Perc      2       0  R:D1B-L:D2A        L   719.24   SubjLeft         C
  6    114 PGME-SL    Perc      2       0  R:D2B-L:D1A        L   765.33  SubjRight         C
  6    115 PGME-SL    Perc      2       0  R:D1A-L:D2A        L   630.21   SubjLeft         C
  6    116 PGME-SL    Perc      2       0  R:D1B-L:D2A        L   913.75   SubjLeft         C
  6    117 PGME-SL    Perc      2       0  R:D2A-L:D1A        L   813.43  SubjRight         C
  6    118 PGME-SL    Perc      2       0  R:D2A-L:D1A        L   757.71  SubjRight         C
  6    119 PGME-SL    Perc      2       0  R:D2A-L:D1B        L   814.50  SubjRight         C
  6    120 PGME-SL    Perc      2       0  R:D1A-L:D2A        L   693.05   SubjLeft         C
  6    121 PGME-SL    Perc      2       0  R:D2A-L:D1B        L   735.18   SubjLeft         F
  6    122 PGME-SL    Perc      2       0  R:D2B-L:D1B        L   695.03   SubjLeft         F
  6    123 PGME-SL    Perc      2       0  R:D1A-L:D2A        L  1048.81   SubjLeft         C
  6    124 PGME-SL    Perc      2       0  R:D1A-L:D2A        L   887.50   SubjLeft         C
  6    125 PGME-SL    Perc      2       0  R:D1B-L:D2B        L  1003.65   SubjLeft         C
  6    126 PGME-SL    Perc      2       0  R:D2B-L:D1B        L  1076.33  SubjRight         C
  6    127 PGME-SL    Perc      2       0  R:D2B-L:D1A        L  1078.91   SubjLeft         F
  6    128 PGME-SL    Perc      2       0  R:D1A-L:D2B        L   978.16   SubjLeft         C
  7      1 MPGE-LS    Perc      1       0  R:D1B-L:D2A        L   920.05  SubjRight         F
  7      2 MPGE-LS    Perc      1       0  R:D1B-L:D2B        L   948.61   SubjLeft         C
  7      3 MPGE-LS    Perc      1       0  R:D2B-L:D1A        L  1041.96  SubjRight         C
  7      4 MPGE-LS    Perc      1       0  R:D1B-L:D2A        L  1173.73  SubjRight         F
  7      5 MPGE-LS    Perc      1       0  R:D2B-L:D1A        L   969.61   SubjLeft         F
  7      6 MPGE-LS    Perc      1       0  R:D1A-L:D2A        L  1093.05  SubjRight         F
  7      7 MPGE-LS    Perc      1       0  R:D2A-L:D1A        L  1086.49   SubjLeft         F
  7      8 MPGE-LS    Perc      1       0  R:D2A-L:D1B        L  1158.37   SubjLeft         F
  7      9 MPGE-LS    Perc      1       0  R:D2A-L:D1A        L   693.84  SubjRight         C
  7     10 MPGE-LS    Perc      1       0  R:D1A-L:D2A        L  1073.94   SubjLeft         C
  7     11 MPGE-LS    Perc      1       0  R:D1B-L:D2A        L   851.65   SubjLeft         C
  7     12 MPGE-LS    Perc      1       0  R:D1A-L:D2A        L   710.13   SubjLeft         C
  7     13 MPGE-LS    Perc      1       0  R:D2A-L:D1B        L   621.35   SubjLeft         F
  7     14 MPGE-LS    Perc      1       0  R:D1B-L:D2B        L   770.45  SubjRight         F
  7     15 MPGE-LS    Perc      1       0  R:D1A-L:D2A        L   910.96   SubjLeft         C
  7     16 MPGE-LS    Perc      1       0  R:D2B-L:D1B        L  1387.00   SubjLeft         F
  7     17 MPGE-LS    Perc      1       0  R:D2B-L:D1B        L   913.62  SubjRight         C
  7     18 MPGE-LS    Perc      1       0  R:D2A-L:D1A        L  1173.31   SubjLeft         F
  7     19 MPGE-LS    Perc      1       0  R:D1A-L:D2B        L   837.12   SubjLeft         C
  7     20 MPGE-LS    Perc      1       0  R:D1B-L:D2B        L   831.98   SubjLeft         C
  7     21 MPGE-LS    Perc      1       0  R:D1A-L:D2B        L   823.32   SubjLeft         C
  7     22 MPGE-LS    Perc      1       0  R:D2A-L:D1A        L   688.43   SubjLeft         F
  7     23 MPGE-LS    Perc      1       0  R:D2B-L:D1A        L   678.00  SubjRight         C
  7     24 MPGE-LS    Perc      1       0  R:D1A-L:D2B        L   444.62   SubjLeft         C
  7     25 MPGE-LS    Perc      1       0  R:D2A-L:D1B        L  1149.45  SubjRight         C
  7     26 MPGE-LS    Perc      1       0  R:D2B-L:D1B        L  1138.76  SubjRight         C
  7     27 MPGE-LS    Perc      1       0  R:D1B-L:D2A        L   881.92   SubjLeft         C
  7     28 MPGE-LS    Perc      1       0  R:D2A-L:D1B        L  1031.85  SubjRight         C
  7     29 MPGE-LS    Perc      1       0  R:D1B-L:D2B        L  1039.68   SubjLeft         C
  7     30 MPGE-LS    Perc      1       0  R:D2B-L:D1A        L   891.29   SubjLeft         F
  7     31 MPGE-LS    Perc      1       0  R:D2B-L:D1B        L   981.09   SubjLeft         F
  7     32 MPGE-LS    Perc      1       0  R:D1A-L:D2B        L   717.07  SubjRight         F
  7     33 MPGE-LS    Perc      2       0  R:D1B-L:D2A        L   986.45  SubjRight         F
  7     34 MPGE-LS    Perc      2       0  R:D2A-L:D1B        L   830.58  SubjRight         C
  7     35 MPGE-LS    Perc      2       0  R:D1A-L:D2A        L  1161.67  SubjRight         F
  7     36 MPGE-LS    Perc      2       0  R:D2B-L:D1A        L   798.02  SubjRight         C
  7     37 MPGE-LS    Perc      2       0  R:D2A-L:D1A        L  1048.00   SubjLeft         F
  7     38 MPGE-LS    Perc      2       0  R:D2A-L:D1B        L  1104.30   SubjLeft         F
  7     39 MPGE-LS    Perc      2       0  R:D1A-L:D2B        L   981.53   SubjLeft         C
  7     40 MPGE-LS    Perc      2       0  R:D1A-L:D2B        L  1112.51   SubjLeft         C
  7     41 MPGE-LS    Perc      2       0  R:D2B-L:D1A        L  1090.72  SubjRight         C
  7     42 MPGE-LS    Perc      2       0  R:D1B-L:D2B        L  1173.53   SubjLeft         C
  7     43 MPGE-LS    Perc      2       0  R:D1A-L:D2A        L  1174.42   SubjLeft         C
  7     44 MPGE-LS    Perc      2       0  R:D2B-L:D1A        L   980.78  SubjRight         C
  7     45 MPGE-LS    Perc      2       0  R:D2A-L:D1A        L   964.69  SubjRight         C
  7     46 MPGE-LS    Perc      2       0  R:D1B-L:D2B        L  1046.78  SubjRight         F
  7     47 MPGE-LS    Perc      2       0  R:D1B-L:D2B        L  1142.15   SubjLeft         C
  7     48 MPGE-LS    Perc      2       0  R:D2A-L:D1B        L   976.65  SubjRight         C
  7     49 MPGE-LS    Perc      2       0  R:D2B-L:D1A        L  1103.86  SubjRight         C
  7     50 MPGE-LS    Perc      2       0  R:D1B-L:D2A        L   974.32   SubjLeft         C
  7     51 MPGE-LS    Perc      2       0  R:D1B-L:D2B        L  1039.99   SubjLeft         C
  7     52 MPGE-LS    Perc      2       0  R:D1A-L:D2A        L   914.16   SubjLeft         C
  7     53 MPGE-LS    Perc      2       0  R:D2A-L:D1B        L  1041.02   SubjLeft         F
  7     54 MPGE-LS    Perc      2       0  R:D1B-L:D2A        L  1095.15   SubjLeft         C
  7     55 MPGE-LS    Perc      2       0  R:D1A-L:D2B        L  1270.77   SubjLeft         C
  7     56 MPGE-LS    Perc      2       0  R:D2B-L:D1B        L  1007.06  SubjRight         C
  7     57 MPGE-LS    Perc      2       0  R:D2B-L:D1B        L  1093.80   SubjLeft         F
  7     58 MPGE-LS    Perc      2       0  R:D2A-L:D1A        L  1051.59   SubjLeft         F
  7     59 MPGE-LS    Perc      2       0  R:D1A-L:D2B        L   834.10   SubjLeft         C
  7     60 MPGE-LS    Perc      2       0  R:D2B-L:D1B        L  1309.25   SubjLeft         F
  7     61 MPGE-LS    Perc      2       0  R:D2B-L:D1B        L   677.22   SubjLeft         F
  7     62 MPGE-LS    Perc      2       0  R:D2A-L:D1A        L  1156.94  SubjRight         C
  7     63 MPGE-LS    Perc      2       0  R:D1A-L:D2A        L   922.62   SubjLeft         C
  7     64 MPGE-LS    Perc      2       0  R:D1B-L:D2A        L  1230.12   SubjLeft         C
  7     65 MPGE-LS    Perc      1       0  R:D2A-L:D1B        S  1270.73  SubjRight         F
  7     66 MPGE-LS    Perc      1       0  R:D1A-L:D2A        S  1159.10   SubjLeft         F
  7     67 MPGE-LS    Perc      1       0  R:D1B-L:D2B        S  1000.40   SubjLeft         F
  7     68 MPGE-LS    Perc      1       0  R:D2A-L:D1B        S   874.63  SubjRight         F
  7     69 MPGE-LS    Perc      1       0  R:D2B-L:D1A        S  1525.04   SubjLeft         C
  7     70 MPGE-LS    Perc      1       0  R:D1A-L:D2A        S  1256.26  SubjRight         C
  7     71 MPGE-LS    Perc      1       0  R:D2A-L:D1B        S  1275.92  SubjRight         F
  7     72 MPGE-LS    Perc      1       0  R:D1B-L:D2B        S   954.63   SubjLeft         F
  7     73 MPGE-LS    Perc      1       0  R:D2B-L:D1A        S  1329.28  SubjRight         F
  7     74 MPGE-LS    Perc      1       0  R:D1A-L:D2B        S   949.68   SubjLeft         F
  7     75 MPGE-LS    Perc      1       0  R:D1B-L:D2A        S  1295.36  SubjRight         C
  7     76 MPGE-LS    Perc      1       0  R:D1A-L:D2A        S  1187.21  SubjRight         C
  7     77 MPGE-LS    Perc      1       0  R:D2A-L:D1A        S  1229.93  SubjRight         F
  7     78 MPGE-LS    Perc      1       0  R:D1A-L:D2B        S  1030.22  SubjRight         C
  7     79 MPGE-LS    Perc      1       0  R:D2B-L:D1B        S   965.01  SubjRight         F
  7     80 MPGE-LS    Perc      1       0  R:D2B-L:D1B        S  1222.28   SubjLeft         C
  7     81 MPGE-LS    Perc      1       0  R:D2B-L:D1B        S  1369.39  SubjRight         F
  7     82 MPGE-LS    Perc      1       0  R:D1B-L:D2A        S  1516.75   SubjLeft         F
  7     83 MPGE-LS    Perc      1       0  R:D1A-L:D2B        S   928.40  SubjRight         C
  7     84 MPGE-LS    Perc      1       0  R:D2A-L:D1B        S  1232.81   SubjLeft         C
  7     85 MPGE-LS    Perc      1       0  R:D1B-L:D2B        S  1374.59  SubjRight         C
  7     86 MPGE-LS    Perc      1       0  R:D1B-L:D2A        S  1568.09  SubjRight         C
  7     87 MPGE-LS    Perc      1       0  R:D1B-L:D2A        S  1388.94  SubjRight         C
  7     88 MPGE-LS    Perc      1       0  R:D1B-L:D2B        S  1402.20  SubjRight         C
  7     89 MPGE-LS    Perc      1       0  R:D2B-L:D1A        S  1848.38  SubjRight         F
  7     90 MPGE-LS    Perc      1       0  R:D2B-L:D1B        S  1269.61  SubjRight         F
  7     91 MPGE-LS    Perc      1       0  R:D1A-L:D2B        S  1266.61  SubjRight         C
  7     92 MPGE-LS    Perc      1       0  R:D1A-L:D2A        S  1236.30  SubjRight         C
  7     93 MPGE-LS    Perc      1       0  R:D2A-L:D1A        S  1210.87   SubjLeft         C
  7     94 MPGE-LS    Perc      1       0  R:D2A-L:D1A        S  1291.65   SubjLeft         C
  7     95 MPGE-LS    Perc      1       0  R:D2B-L:D1A        S  1178.88  SubjRight         F
  7     96 MPGE-LS    Perc      1       0  R:D2A-L:D1A        S  1150.18  SubjRight         F
  7     97 MPGE-LS    Perc      2       0  R:D2A-L:D1B        S   864.70  SubjRight         F
  7     98 MPGE-LS    Perc      2       0  R:D1A-L:D2B        S   948.13  SubjRight         C
  7     99 MPGE-LS    Perc      2       0  R:D1A-L:D2A        S   953.97  SubjRight         C
  7    100 MPGE-LS    Perc      2       0  R:D1B-L:D2A        S  1100.67  SubjRight         C
  7    101 MPGE-LS    Perc      2       0  R:D1B-L:D2B        S   866.06   SubjLeft         F
  7    102 MPGE-LS    Perc      2       0  R:D2A-L:D1A        S  1735.31   SubjLeft         C
  7    103 MPGE-LS    Perc      2       0  R:D1A-L:D2B        S  1410.13  SubjRight         C
  7    104 MPGE-LS    Perc      2       0  R:D1A-L:D2B        S  1184.68  SubjRight         C
  7    105 MPGE-LS    Perc      2       0  R:D2B-L:D1A        S  1714.08  SubjRight         F
  7    106 MPGE-LS    Perc      2       0  R:D2B-L:D1A        S  1871.66   SubjLeft         C
  7    107 MPGE-LS    Perc      2       0  R:D1B-L:D2B        S  1467.29  SubjRight         C
  7    108 MPGE-LS    Perc      2       0  R:D2B-L:D1B        S  1494.58  SubjRight         F
  7    109 MPGE-LS    Perc      2       0  R:D2B-L:D1A        S  1115.06  SubjRight         F
  7    110 MPGE-LS    Perc      2       0  R:D2B-L:D1A        S  1417.36  SubjRight         F
  7    111 MPGE-LS    Perc      2       0  R:D1B-L:D2B        S   891.47  SubjRight         C
  7    112 MPGE-LS    Perc      2       0  R:D2B-L:D1B        S  1313.50  SubjRight         F
  7    113 MPGE-LS    Perc      2       0  R:D2A-L:D1A        S  1107.49  SubjRight         F
  7    114 MPGE-LS    Perc      2       0  R:D1B-L:D2A        S  1264.16  SubjRight         C
  7    115 MPGE-LS    Perc      2       0  R:D1B-L:D2B        S   883.06   SubjLeft         F
  7    116 MPGE-LS    Perc      2       0  R:D2B-L:D1B        S   809.90  SubjRight         F
  7    117 MPGE-LS    Perc      2       0  R:D1A-L:D2A        S   831.26  SubjRight         C
  7    118 MPGE-LS    Perc      2       0  R:D2A-L:D1A        S   756.78  SubjRight         F
  7    119 MPGE-LS    Perc      2       0  R:D2A-L:D1B        S   798.06  SubjRight         F
  7    120 MPGE-LS    Perc      2       0  R:D2A-L:D1B        S  1639.00   SubjLeft         C
  7    121 MPGE-LS    Perc      2       0  R:D1A-L:D2A        S  1374.13  SubjRight         C
  7    122 MPGE-LS    Perc      2       0  R:D1A-L:D2A        S   900.25  SubjRight         C
  7    123 MPGE-LS    Perc      2       0  R:D2B-L:D1B        S   664.20  SubjRight         F
  7    124 MPGE-LS    Perc      2       0  R:D1B-L:D2A        S   748.55  SubjRight         C
  7    125 MPGE-LS    Perc      2       0  R:D1A-L:D2B        S  1282.86  SubjRight         C
  7    126 MPGE-LS    Perc      2       0  R:D1B-L:D2A        S  1318.08  SubjRight         C
  7    127 MPGE-LS    Perc      2       0  R:D2A-L:D1B        S  1184.13  SubjRight         F
  7    128 MPGE-LS    Perc      2       0  R:D2A-L:D1A        S   971.16  SubjRight         F
  8      1 MGPE-LS    Perc      1       0  R:D1A-L:D2A        L   883.29  SubjRight         F
  8      2 MGPE-LS    Perc      1       0  R:D1A-L:D2B        L   950.25   SubjLeft         C
  8      3 MGPE-LS    Perc      1       0  R:D1A-L:D2B        L   707.75   SubjLeft         C
  8      4 MGPE-LS    Perc      1       0  R:D2A-L:D1B        L   784.85   SubjLeft         F
  8      5 MGPE-LS    Perc      1       0  R:D2B-L:D1A        L   900.41  SubjRight         C
  8      6 MGPE-LS    Perc      1       0  R:D2B-L:D1A        L  1136.47   SubjLeft         F
  8      7 MGPE-LS    Perc      1       0  R:D1A-L:D2A        L  1297.89   SubjLeft         C
  8      8 MGPE-LS    Perc      1       0  R:D2A-L:D1B        L   846.43   SubjLeft         F
  8      9 MGPE-LS    Perc      1       0  R:D1A-L:D2A        L   847.33   SubjLeft         C
  8     10 MGPE-LS    Perc      1       0  R:D2A-L:D1A        L   919.99  SubjRight         C
  8     11 MGPE-LS    Perc      1       0  R:D1A-L:D2B        L   689.64   SubjLeft         C
  8     12 MGPE-LS    Perc      1       0  R:D2B-L:D1A        L   718.17   SubjLeft         F
  8     13 MGPE-LS    Perc      1       0  R:D2B-L:D1B        L   868.67  SubjRight         C
  8     14 MGPE-LS    Perc      1       0  R:D2B-L:D1B        L  1034.13  SubjRight         C
  8     15 MGPE-LS    Perc      1       0  R:D2A-L:D1A        L   674.69   SubjLeft         F
  8     16 MGPE-LS    Perc      1       0  R:D1B-L:D2A        L  1050.85   SubjLeft         C
  8     17 MGPE-LS    Perc      1       0  R:D1B-L:D2A        L   814.23   SubjLeft         C
  8     18 MGPE-LS    Perc      1       0  R:D1A-L:D2A        L  1166.88   SubjLeft         C
  8     19 MGPE-LS    Perc      1       0  R:D1A-L:D2B        L   796.25   SubjLeft         C
  8     20 MGPE-LS    Perc      1       0  R:D2B-L:D1B        L   988.21   SubjLeft         F
  8     21 MGPE-LS    Perc      1       0  R:D1B-L:D2B        L   662.29   SubjLeft         C
  8     22 MGPE-LS    Perc      1       0  R:D1B-L:D2B        L   913.82   SubjLeft         C
  8     23 MGPE-LS    Perc      1       0  R:D1B-L:D2A        L   872.98   SubjLeft         C
  8     24 MGPE-LS    Perc      1       0  R:D2B-L:D1A        L   867.46  SubjRight         C
  8     25 MGPE-LS    Perc      1       0  R:D1B-L:D2A        L   978.48   SubjLeft         C
  8     26 MGPE-LS    Perc      1       0  R:D2A-L:D1A        L   965.17  SubjRight         C
  8     27 MGPE-LS    Perc      1       0  R:D1B-L:D2B        L   920.66   SubjLeft         C
  8     28 MGPE-LS    Perc      1       0  R:D2A-L:D1B        L  1039.40  SubjRight         C
  8     29 MGPE-LS    Perc      1       0  R:D1B-L:D2B        L   891.43   SubjLeft         C
  8     30 MGPE-LS    Perc      1       0  R:D2A-L:D1A        L   733.93   SubjLeft         F
  8     31 MGPE-LS    Perc      1       0  R:D2B-L:D1B        L   814.47   SubjLeft         F
  8     32 MGPE-LS    Perc      1       0  R:D2A-L:D1B        L  1025.25   SubjLeft         F
  8     33 MGPE-LS    Perc      2       0  R:D2B-L:D1B        L   679.79   SubjLeft         F
  8     34 MGPE-LS    Perc      2       0  R:D2A-L:D1A        L  1630.02  SubjRight         C
  8     35 MGPE-LS    Perc      2       0  R:D2A-L:D1A        L   950.74   SubjLeft         F
  8     36 MGPE-LS    Perc      2       0  R:D1B-L:D2B        L   873.36   SubjLeft         C
  8     37 MGPE-LS    Perc      2       0  R:D2A-L:D1A        L   864.80  SubjRight         C
  8     38 MGPE-LS    Perc      2       0  R:D1A-L:D2B        L   740.96   SubjLeft         C
  8     39 MGPE-LS    Perc      2       0  R:D1B-L:D2A        L   621.98   SubjLeft         C
  8     40 MGPE-LS    Perc      2       0  R:D1A-L:D2A        L   788.76   SubjLeft         C
  8     41 MGPE-LS    Perc      2       0  R:D2B-L:D1B        L   966.62   SubjLeft         F
  8     42 MGPE-LS    Perc      2       0  R:D1B-L:D2A        L  1235.88   SubjLeft         C
  8     43 MGPE-LS    Perc      2       0  R:D2B-L:D1A        L   738.87  SubjRight         C
  8     44 MGPE-LS    Perc      2       0  R:D2B-L:D1B        L   752.13   SubjLeft         F
  8     45 MGPE-LS    Perc      2       0  R:D2A-L:D1A        L  1053.84  SubjRight         C
  8     46 MGPE-LS    Perc      2       0  R:D1B-L:D2B        L   883.76   SubjLeft         C
  8     47 MGPE-LS    Perc      2       0  R:D2B-L:D1B        L   766.06  SubjRight         C
  8     48 MGPE-LS    Perc      2       0  R:D1A-L:D2A        L  1054.19   SubjLeft         C
  8     49 MGPE-LS    Perc      2       0  R:D2B-L:D1A        L  1173.78  SubjRight         C
  8     50 MGPE-LS    Perc      2       0  R:D1A-L:D2B        L  1429.98  SubjRight         F
  8     51 MGPE-LS    Perc      2       0  R:D2B-L:D1A        L  1107.07   SubjLeft         F
  8     52 MGPE-LS    Perc      2       0  R:D2A-L:D1B        L   828.78   SubjLeft         F
  8     53 MGPE-LS    Perc      2       0  R:D2B-L:D1A        L  1108.07  SubjRight         C
  8     54 MGPE-LS    Perc      2       0  R:D1B-L:D2A        L   940.74   SubjLeft         C
  8     55 MGPE-LS    Perc      2       0  R:D2A-L:D1B        L  1483.62  SubjRight         C
  8     56 MGPE-LS    Perc      2       0  R:D1A-L:D2A        L   867.40   SubjLeft         C
  8     57 MGPE-LS    Perc      2       0  R:D1A-L:D2B        L   730.17   SubjLeft         C
  8     58 MGPE-LS    Perc      2       0  R:D1A-L:D2A        L   975.64   SubjLeft         C
  8     59 MGPE-LS    Perc      2       0  R:D1B-L:D2B        L  1083.84   SubjLeft         C
  8     60 MGPE-LS    Perc      2       0  R:D2A-L:D1B        L  1501.67   SubjLeft         F
  8     61 MGPE-LS    Perc      2       0  R:D1A-L:D2B        L  1201.89  SubjRight         F
  8     62 MGPE-LS    Perc      2       0  R:D1B-L:D2A        L   788.17   SubjLeft         C
  8     63 MGPE-LS    Perc      2       0  R:D1B-L:D2B        L   700.86   SubjLeft         C
  8     64 MGPE-LS    Perc      2       0  R:D2A-L:D1B        L   778.37   SubjLeft         F
  8     65 MGPE-LS    Perc      1       0  R:D2A-L:D1A        S  1158.55  SubjRight         F
  8     66 MGPE-LS    Perc      1       0  R:D1B-L:D2B        S   928.47  SubjRight         C
  8     67 MGPE-LS    Perc      1       0  R:D2B-L:D1A        S  1400.46   SubjLeft         C
  8     68 MGPE-LS    Perc      1       0  R:D2B-L:D1B        S   932.34   SubjLeft         C
  8     69 MGPE-LS    Perc      1       0  R:D1B-L:D2A        S   989.43   SubjLeft         F
  8     70 MGPE-LS    Perc      1       0  R:D1A-L:D2A        S   725.80  SubjRight         C
  8     71 MGPE-LS    Perc      1       0  R:D1B-L:D2B        S   749.19  SubjRight         C
  8     72 MGPE-LS    Perc      1       0  R:D1A-L:D2A        S   986.15  SubjRight         C
  8     73 MGPE-LS    Perc      1       0  R:D1A-L:D2B        S  1082.55   SubjLeft         F
  8     74 MGPE-LS    Perc      1       0  R:D1B-L:D2A        S   955.68  SubjRight         C
  8     75 MGPE-LS    Perc      1       0  R:D2A-L:D1A        S   948.98   SubjLeft         C
  8     76 MGPE-LS    Perc      1       0  R:D2B-L:D1A        S  1037.74  SubjRight         F
  8     77 MGPE-LS    Perc      1       0  R:D2A-L:D1B        S   830.71   SubjLeft         C
  8     78 MGPE-LS    Perc      1       0  R:D2A-L:D1B        S   870.29  SubjRight         F
  8     79 MGPE-LS    Perc      1       0  R:D2A-L:D1A        S   878.36   SubjLeft         C
  8     80 MGPE-LS    Perc      1       0  R:D1A-L:D2B        S   789.77  SubjRight         C
  8     81 MGPE-LS    Perc      1       0  R:D1B-L:D2A        S   938.19  SubjRight         C
  8     82 MGPE-LS    Perc      1       0  R:D2B-L:D1A        S   904.78   SubjLeft         C
  8     83 MGPE-LS    Perc      1       0  R:D1A-L:D2B        S  1146.61  SubjRight         C
  8     84 MGPE-LS    Perc      1       0  R:D2A-L:D1B        S  1235.17   SubjLeft         C
  8     85 MGPE-LS    Perc      1       0  R:D2A-L:D1A        S  1040.06  SubjRight         F
  8     86 MGPE-LS    Perc      1       0  R:D2A-L:D1B        S  1014.02  SubjRight         F
  8     87 MGPE-LS    Perc      1       0  R:D1A-L:D2A        S  1329.75   SubjLeft         F
  8     88 MGPE-LS    Perc      1       0  R:D1A-L:D2B        S  1038.68  SubjRight         C
  8     89 MGPE-LS    Perc      1       0  R:D2B-L:D1B        S  1106.95   SubjLeft         C
  8     90 MGPE-LS    Perc      1       0  R:D1A-L:D2A        S   917.75  SubjRight         C
  8     91 MGPE-LS    Perc      1       0  R:D1B-L:D2B        S   903.98  SubjRight         C
  8     92 MGPE-LS    Perc      1       0  R:D1B-L:D2A        S   789.55  SubjRight         C
  8     93 MGPE-LS    Perc      1       0  R:D1B-L:D2B        S  1178.15  SubjRight         C
  8     94 MGPE-LS    Perc      1       0  R:D2B-L:D1B        S   959.41  SubjRight         F
  8     95 MGPE-LS    Perc      1       0  R:D2B-L:D1B        S  1274.22  SubjRight         F
  8     96 MGPE-LS    Perc      1       0  R:D2B-L:D1A        S  1217.58  SubjRight         F
  8     97 MGPE-LS    Perc      2       0  R:D2A-L:D1A        S  1337.43  SubjRight         F
  8     98 MGPE-LS    Perc      2       0  R:D2B-L:D1B        S   992.30  SubjRight         F
  8     99 MGPE-LS    Perc      2       0  R:D2B-L:D1B        S  1177.12   SubjLeft         C
  8    100 MGPE-LS    Perc      2       0  R:D2A-L:D1B        S   761.97  SubjRight         F
  8    101 MGPE-LS    Perc      2       0  R:D1A-L:D2B        S   851.30  SubjRight         C
  8    102 MGPE-LS    Perc      2       0  R:D1A-L:D2A        S   809.98  SubjRight         C
  8    103 MGPE-LS    Perc      2       0  R:D1A-L:D2A        S   989.43  SubjRight         C
  8    104 MGPE-LS    Perc      2       0  R:D2B-L:D1B        S  1059.13   SubjLeft         C
  8    105 MGPE-LS    Perc      2       0  R:D1B-L:D2B        S   838.14  SubjRight         C
  8    106 MGPE-LS    Perc      2       1  R:D1B-L:D2B        S   900.63  SubjRight         C
  8    107 MGPE-LS    Perc      2       1  R:D1A-L:D2B        S   912.09   SubjLeft         F
  8    108 MGPE-LS    Perc      2       1  R:D2A-L:D1B        S  1050.84   SubjLeft         C
  8    109 MGPE-LS    Perc      2       1  R:D2A-L:D1A        S   848.37   SubjLeft         C
  8    110 MGPE-LS    Perc      2       1  R:D1B-L:D2B        S   836.80  SubjRight         C
  8    111 MGPE-LS    Perc      2       1  R:D2B-L:D1B        S  1028.44   SubjLeft         C
  8    112 MGPE-LS    Perc      2       1  R:D1A-L:D2A        S  1025.32  SubjRight         C
  8    113 MGPE-LS    Perc      2       1  R:D1B-L:D2A        S   876.78  SubjRight         C
  8    114 MGPE-LS    Perc      2       1  R:D2A-L:D1B        S   986.14   SubjLeft         C
  8    115 MGPE-LS    Perc      2       1  R:D2B-L:D1A        S   911.00  SubjRight         F
  8    116 MGPE-LS    Perc      2       1  R:D2B-L:D1A        S  1043.62   SubjLeft         C
  8    117 MGPE-LS    Perc      2       1  R:D1B-L:D2A        S   852.72  SubjRight         C
  8    118 MGPE-LS    Perc      2       1  R:D1A-L:D2A        S  1010.96  SubjRight         C
  8    119 MGPE-LS    Perc      2       1  R:D2A-L:D1A        S  1069.48  SubjRight         F
  8    120 MGPE-LS    Perc      2       1  R:D1B-L:D2B        S   982.63  SubjRight         C
  8    121 MGPE-LS    Perc      2       1  R:D2B-L:D1A        S   942.35   SubjLeft         C
  8    122 MGPE-LS    Perc      2       1  R:D1B-L:D2A        S  1034.20  SubjRight         C
  8    123 MGPE-LS    Perc      2       2  R:D2A-L:D1A        S  1137.83  SubjRight         F
  8    124 MGPE-LS    Perc      2       2  R:D2B-L:D1A        S   964.34  SubjRight         F
  8    125 MGPE-LS    Perc      2       2  R:D1A-L:D2B        S  1258.06  SubjRight         C
  8    126 MGPE-LS    Perc      2       2  R:D1B-L:D2A        S  1707.90  SubjRight         C
  8    127 MGPE-LS    Perc      2       2  R:D2A-L:D1B        S   969.80   SubjLeft         C
  8    128 MGPE-LS    Perc      2       2  R:D1A-L:D2B        S   946.16  SubjRight         C
  9      1 GPME-LS    Perc      1       0  R:D1A-L:D2A        L   827.67   SubjLeft         C
  9      2 GPME-LS    Perc      1       0  R:D2A-L:D1A        L  1041.73   SubjLeft         F
  9      3 GPME-LS    Perc      1       0  R:D1B-L:D2B        L  1036.58   SubjLeft         C
  9      4 GPME-LS    Perc      1       0  R:D1B-L:D2A        L  1375.15   SubjLeft         C
  9      5 GPME-LS    Perc      1       0  R:D2A-L:D1A        L  1191.21  SubjRight         C
  9      6 GPME-LS    Perc      1       0  R:D2A-L:D1B        L  1181.86  SubjRight         C
  9      7 GPME-LS    Perc      1       0  R:D2A-L:D1B        L  1285.76  SubjRight         C
  9      8 GPME-LS    Perc      1       0  R:D1B-L:D2A        L   900.02   SubjLeft         C
  9      9 GPME-LS    Perc      1       0  R:D1B-L:D2B        L  1051.88   SubjLeft         C
  9     10 GPME-LS    Perc      1       0  R:D1B-L:D2B        L  1242.50   SubjLeft         C
  9     11 GPME-LS    Perc      1       0  R:D2A-L:D1B        L  1727.98  SubjRight         C
  9     12 GPME-LS    Perc      1       0  R:D2B-L:D1B        L  1819.86  SubjRight         C
  9     13 GPME-LS    Perc      1       0  R:D1A-L:D2A        L  1414.77   SubjLeft         C
  9     14 GPME-LS    Perc      1       0  R:D2A-L:D1A        L  1565.16  SubjRight         C
  9     15 GPME-LS    Perc      1       0  R:D2B-L:D1A        L  1399.18   SubjLeft         F
  9     16 GPME-LS    Perc      1       0  R:D2A-L:D1A        L  1685.18  SubjRight         C
  9     17 GPME-LS    Perc      1       0  R:D1A-L:D2A        L  1438.82   SubjLeft         C
  9     18 GPME-LS    Perc      1       0  R:D2B-L:D1A        L  1227.01   SubjLeft         F
  9     19 GPME-LS    Perc      1       0  R:D1A-L:D2A        L  1365.57   SubjLeft         C
  9     20 GPME-LS    Perc      1       0  R:D1A-L:D2B        L  1580.95   SubjLeft         C
  9     21 GPME-LS    Perc      1       0  R:D2B-L:D1B        L  1402.67   SubjLeft         F
  9     22 GPME-LS    Perc      1       0  R:D2B-L:D1B        L  1500.07  SubjRight         C
  9     23 GPME-LS    Perc      1       0  R:D2A-L:D1B        L  1739.60   SubjLeft         F
  9     24 GPME-LS    Perc      1       0  R:D1A-L:D2B        L  1303.22   SubjLeft         C
  9     25 GPME-LS    Perc      1       0  R:D1B-L:D2A        L  1467.25   SubjLeft         C
  9     26 GPME-LS    Perc      1       0  R:D2B-L:D1A        L  1690.22   SubjLeft         F
  9     27 GPME-LS    Perc      1       0  R:D1A-L:D2B        L  1274.00   SubjLeft         C
  9     28 GPME-LS    Perc      1       0  R:D1B-L:D2A        L  1476.20   SubjLeft         C
  9     29 GPME-LS    Perc      1       0  R:D1A-L:D2B        L  1695.22   SubjLeft         C
  9     30 GPME-LS    Perc      1       0  R:D2B-L:D1B        L  1782.79  SubjRight         C
  9     31 GPME-LS    Perc      1       0  R:D2B-L:D1A        L  1784.80   SubjLeft         F
  9     32 GPME-LS    Perc      1       0  R:D1B-L:D2B        L  1303.11   SubjLeft         C
  9     33 GPME-LS    Perc      2       0  R:D1B-L:D2B        L  1556.98   SubjLeft         C
  9     34 GPME-LS    Perc      2       0  R:D2A-L:D1B        L  1503.18  SubjRight         C
  9     35 GPME-LS    Perc      2       0  R:D1B-L:D2A        L  1240.68   SubjLeft         C
  9     36 GPME-LS    Perc      2       0  R:D1B-L:D2A        L  1331.53   SubjLeft         C
  9     37 GPME-LS    Perc      2       0  R:D2B-L:D1A        L  1180.32  SubjRight         C
  9     38 GPME-LS    Perc      2       0  R:D1B-L:D2B        L  1218.37   SubjLeft         C
