Sub  Trial   Group    Task  Block  Errors      Stimuli       RT   Response  Accuracy
  1      1 MPGE-SL  ExPerc      1       0          D1A   582.77      SubjL         C
  1      2 MPGE-SL  ExPerc      1       0          D2A   392.96      SubjL         F
  1      3 MPGE-SL  ExPerc      1       0          D1A   679.10      SubjL         C
  1      4 MPGE-SL  ExPerc      1       0          D2A   475.71      SubjS         C
  1      5 MPGE-SL  ExPerc      1       0          D1B   587.69      SubjS         F
  1      6 MPGE-SL  ExPerc      1       0          D1A   679.13      SubjL         C
  1      7 MPGE-SL  ExPerc      1       0          D2B   635.94      SubjL         F
  1      8 MPGE-SL  ExPerc      1       0          D2A   467.29      SubjL         F
  1      9 MPGE-SL  ExPerc      1       0          D2B   381.26      SubjS         C
  1     10 MPGE-SL  ExPerc      1       0          D2A   563.47      SubjL         F
  1     11 MPGE-SL  ExPerc      1       0          D2A   483.44      SubjL         F
  1     12 MPGE-SL  ExPerc      1       0          D2B   360.08      SubjS         C
  1     13 MPGE-SL  ExPerc      1       0          D1B   537.55      SubjL         C
  1     14 MPGE-SL  ExPerc      1       0          D2B   517.96      SubjS         C
  1     15 MPGE-SL  ExPerc      1       0          D2A   456.66      SubjS         C
  1     16 MPGE-SL  ExPerc      1       0          D2B   338.78      SubjL         F
  1     17 MPGE-SL  ExPerc      1       0          D1A   556.96      SubjS         F
  1     18 MPGE-SL  ExPerc      1       0          D1B   458.00      SubjL         C
  1     19 MPGE-SL  ExPerc      1       0          D1A   458.57      SubjL         C
  1     20 MPGE-SL  ExPerc      1       0          D1B   471.50      SubjL         C
  1     21 MPGE-SL  ExPerc      1       0          D1B   612.55      SubjL         C
  1     22 MPGE-SL  ExPerc      1       0          D1B   469.98      SubjS         F
  1     23 MPGE-SL  ExPerc      1       0          D1B   652.77      SubjS         F
  1     24 MPGE-SL  ExPerc      1       0          D2A   597.18      SubjS         C
  1     25 MPGE-SL  ExPerc      1       0          D2B   609.56      SubjL         F
  1     26 MPGE-SL  ExPerc      1       0          D2B   377.47      SubjL         F
  1     27 MPGE-SL  ExPerc      1       0          D1A   438.73      SubjS         F
  1     28 MPGE-SL  ExPerc      1       0          D2A   579.19      SubjS         C
  1     29 MPGE-SL  ExPerc      1       0          D1B   484.95      SubjL         C
  1     30 MPGE-SL  ExPerc      1       0          D1A   520.39      SubjL         C
  1     31 MPGE-SL  ExPerc      1       0          D1A   449.21      SubjL         C
  1     32 MPGE-SL  ExPerc      1       0          D2B   503.12      SubjS         C
  1     33 MPGE-SL  ExPerc      2       0          D1B  1078.08      SubjS         F
  1     34 MPGE-SL  ExPerc      2       0          D1A   671.60      SubjS         F
  1     35 MPGE-SL  ExPerc      2       0          D1B   409.55      SubjL         C
  1     36 MPGE-SL  ExPerc      2       0          D2B   352.36      SubjS         C
  1     37 MPGE-SL  ExPerc      2       0          D1B   546.76      SubjS         F
  1     38 MPGE-SL  ExPerc      2       0          D2B   538.29      SubjS         C
  1     39 MPGE-SL  ExPerc      2       0          D2B   482.73      SubjS         C
  1     40 MPGE-SL  ExPerc      2       0          D2B   632.77      SubjL         F
  1     41 MPGE-SL  ExPerc      2       0          D1B   694.08      SubjS         F
  1     42 MPGE-SL  ExPerc      2       0          D1A   396.89      SubjL         C
  1     43 MPGE-SL  ExPerc      2       0          D1B   520.04      SubjL         C
  1     44 MPGE-SL  ExPerc      2       0          D2A   460.41      SubjL         F
  1     45 MPGE-SL  ExPerc      2       0          D1A   242.05      SubjS         F
  1     46 MPGE-SL  ExPerc      2       0          D1A   515.32      SubjS         F
  1     47 MPGE-SL  ExPerc      2       0          D2B   422.24      SubjS         C
  1     48 MPGE-SL  ExPerc      2       0          D1A   418.84      SubjS         F
  1     49 MPGE-SL  ExPerc      2       0          D2B   313.91      SubjS         C
  1     50 MPGE-SL  ExPerc      2       0          D1B   729.29      SubjL         C
  1     51 MPGE-SL  ExPerc      2       0          D2A  1077.03      SubjL         F
  1     52 MPGE-SL  ExPerc      2       0          D2B   494.49      SubjS         C
  1     53 MPGE-SL  ExPerc      2       0          D1A   490.62      SubjL         C
  1     54 MPGE-SL  ExPerc      2       0          D2A   837.91      SubjL         F
  1     55 MPGE-SL  ExPerc      2       0          D2A   543.87      SubjL         F
  1     56 MPGE-SL  ExPerc      2       0          D1B   727.20      SubjL         C
  1     57 MPGE-SL  ExPerc      2       0          D2A   639.67      SubjS         C
  1     58 MPGE-SL  ExPerc      2       0          D1B   611.21      SubjS         F
  1     59 MPGE-SL  ExPerc      2       0          D1A   607.30      SubjS         F
  1     60 MPGE-SL  ExPerc      2       0          D2B   475.62      SubjS         C
  1     61 MPGE-SL  ExPerc      2       0          D2A   741.22      SubjS         C
  1     62 MPGE-SL  ExPerc      2       0          D2A   851.90      SubjL         F
  1     63 MPGE-SL  ExPerc      2       0          D2A   498.63      SubjL         F
  1     64 MPGE-SL  ExPerc      2       0          D1A   549.52      SubjL         C
  1     65 MPGE-SL  ExPerc      3       0          D2A  1342.64      SubjL         F
  1     66 MPGE-SL  ExPerc      3       0          D2A   677.45      SubjS         C
  1     67 MPGE-SL  ExPerc      3       0          D2A   437.32      SubjL         F
  1     68 MPGE-SL  ExPerc      3       0          D1A   573.15      SubjL         C
  1     69 MPGE-SL  ExPerc      3       0          D1A   650.49      SubjL         C
  1     70 MPGE-SL  ExPerc      3       0          D1A   738.47      SubjS         F
  1     71 MPGE-SL  ExPerc      3       0          D1B   414.10      SubjS         F
  1     72 MPGE-SL  ExPerc      3       0          D2A   455.11      SubjS         C
  1     73 MPGE-SL  ExPerc      3       0          D1A   578.81      SubjL         C
  1     74 MPGE-SL  ExPerc      3       0          D2B   478.59      SubjL         F
  1     75 MPGE-SL  ExPerc      3       0          D2B   331.26      SubjS         C
  1     76 MPGE-SL  ExPerc      3       0          D2A   444.26      SubjS         C
  1     77 MPGE-SL  ExPerc      3       0          D2A   330.49      SubjS         C
  1     78 MPGE-SL  ExPerc      3       0          D1B   510.43      SubjS         F
  1     79 MPGE-SL  ExPerc      3       0          D2B   433.89      SubjS         C
  1     80 MPGE-SL  ExPerc      3       0          D1B   686.06      SubjS         F
  1     81 MPGE-SL  ExPerc      3       0          D1A   782.01      SubjL         C
  1     82 MPGE-SL  ExPerc      3       0          D1B   460.66      SubjL         C
  1     83 MPGE-SL  ExPerc      3       0          D2B   546.15      SubjL         F
  1     84 MPGE-SL  ExPerc      3       0          D2B   927.25      SubjS         C
  1     85 MPGE-SL  ExPerc      3       0          D1B   492.64      SubjL         C
  1     86 MPGE-SL  ExPerc      3       0          D1B   569.74      SubjL         C
  1     87 MPGE-SL  ExPerc      3       0          D2B   579.84      SubjL         F
  1     88 MPGE-SL  ExPerc      3       0          D1A   573.56      SubjS         F
  1     89 MPGE-SL  ExPerc      3       0          D2B   476.58      SubjS         C
  1     90 MPGE-SL  ExPerc      3       0          D1A   384.35      SubjS         F
  1     91 MPGE-SL  ExPerc      3       0          D1B   477.19      SubjL         C
  1     92 MPGE-SL  ExPerc      3       0          D1B   436.20      SubjL         C
  1     93 MPGE-SL  ExPerc      3       0          D1A   818.93      SubjL         C
  1     94 MPGE-SL  ExPerc      3       0          D2A   546.30      SubjL         F
  1     95 MPGE-SL  ExPerc      3       0          D2B   823.02      SubjL         F
  1     96 MPGE-SL  ExPerc      3       0          D2A   364.12      SubjS         C
  1     97 MPGE-SL  ExPerc      4       0          D2B  1259.84      SubjS         C
  1     98 MPGE-SL  ExPerc      4       0          D2A   388.08      SubjL         F
  1     99 MPGE-SL  ExPerc      4       0          D1B   421.23      SubjL         C
  1    100 MPGE-SL  ExPerc      4       0          D1B   416.47      SubjS         F
  1    101 MPGE-SL  ExPerc      4       0          D2B   500.21      SubjS         C
  1    102 MPGE-SL  ExPerc      4       0          D1B   482.38      SubjS         F
  1    103 MPGE-SL  ExPerc      4       0          D1A  1041.49      SubjS         F
  1    104 MPGE-SL  ExPerc      4       0          D1B   460.32      SubjS         F
  1    105 MPGE-SL  ExPerc      4       0          D2A   494.45      SubjL         F
  1    106 MPGE-SL  ExPerc      4       0          D2A   521.03      SubjS         C
  1    107 MPGE-SL  ExPerc      4       0          D2A   484.93      SubjL         F
  1    108 MPGE-SL  ExPerc      4       0          D1B   651.46      SubjS         F
  1    109 MPGE-SL  ExPerc      4       0          D1A   532.13      SubjS         F
  1    110 MPGE-SL  ExPerc      4       0          D2A   530.39      SubjS         C
  1    111 MPGE-SL  ExPerc      4       0          D1B   571.92      SubjS         F
  1    112 MPGE-SL  ExPerc      4       0          D2A   557.79      SubjS         C
  1    113 MPGE-SL  ExPerc      4       0          D2B   908.50      SubjL         F
  1    114 MPGE-SL  ExPerc      4       0          D1A   497.16      SubjL         C
  1    115 MPGE-SL  ExPerc      4       0          D1A   499.54      SubjL         C
  1    116 MPGE-SL  ExPerc      4       0          D1A   585.98      SubjL         C
  1    117 MPGE-SL  ExPerc      4       0          D2B   649.12      SubjS         C
  1    118 MPGE-SL  ExPerc      4       0          D2B   552.33      SubjS         C
  1    119 MPGE-SL  ExPerc      4       0          D1A   696.22      SubjL         C
  1    120 MPGE-SL  ExPerc      4       0          D1B   553.55      SubjL         C
  1    121 MPGE-SL  ExPerc      4       0          D2B   707.74      SubjL         F
  1    122 MPGE-SL  ExPerc      4       0          D2A   379.64      SubjL         F
  1    123 MPGE-SL  ExPerc      4       0          D2A   485.25      SubjS         C
  1    124 MPGE-SL  ExPerc      4       0          D1A   514.15      SubjL         C
  1    125 MPGE-SL  ExPerc      4       0          D2B   478.23      SubjS         C
  1    126 MPGE-SL  ExPerc      4       0          D2B   565.69      SubjS         C
  1    127 MPGE-SL  ExPerc      4       0          D1A   734.45      SubjS         F
  1    128 MPGE-SL  ExPerc      4       0          D1B   415.19      SubjS         F
  2      1 MGPE-SL  ExPerc      1       0          D2B   450.82      SubjL         F
  2      2 MGPE-SL  ExPerc      1       0          D2A   565.03      SubjL         F
  2      3 MGPE-SL  ExPerc      1       0          D1B   608.25      SubjL         C
  2      4 MGPE-SL  ExPerc      1       0          D2A   863.31      SubjS         C
  2      5 MGPE-SL  ExPerc      1       0          D2B   775.14      SubjS         C
  2      6 MGPE-SL  ExPerc      1       0          D1A   508.26      SubjL         C
  2      7 MGPE-SL  ExPerc      1       0          D2A   719.25      SubjS         C
  2      8 MGPE-SL  ExPerc      1       0          D1B   440.11      SubjL         C
  2      9 MGPE-SL  ExPerc      1       0          D1A   778.37      SubjS         F
  2     10 MGPE-SL  ExPerc      1       0          D1B   722.06      SubjS         F
  2     11 MGPE-SL  ExPerc      1       0          D2A   469.06      SubjL         F
  2     12 MGPE-SL  ExPerc      1       0          D2A   563.70      SubjS         C
  2     13 MGPE-SL  ExPerc      1       0          D1A   540.78      SubjL         C
  2     14 MGPE-SL  ExPerc      1       0          D2A   695.37      SubjL         F
  2     15 MGPE-SL  ExPerc      1       0          D2B   829.82      SubjS         C
  2     16 MGPE-SL  ExPerc      1       0          D2A   430.07      SubjL         F
  2     17 MGPE-SL  ExPerc      1       0          D2B   554.93      SubjL         F
  2     18 MGPE-SL  ExPerc      1       0          D1A   951.51      SubjL         C
  2     19 MGPE-SL  ExPerc      1       1          D1B   714.93      SubjL         C
  2     20 MGPE-SL  ExPerc      1       1          D1B   655.97      SubjL         C
  2     21 MGPE-SL  ExPerc      1       1          D2B   740.35      SubjL         F
  2     22 MGPE-SL  ExPerc      1       1          D2A  1061.03      SubjS         C
  2     23 MGPE-SL  ExPerc      1       1          D1A  1464.14      SubjS         F
  2     24 MGPE-SL  ExPerc      1       1          D1B   638.42      SubjS         F
  2     25 MGPE-SL  ExPerc      1       1          D2B   840.81      SubjS         C
  2     26 MGPE-SL  ExPerc      1       1          D1B   715.33      SubjL         C
  2     27 MGPE-SL  ExPerc      1       1          D1B   779.92      SubjL         C
  2     28 MGPE-SL  ExPerc      1       1          D1A   775.19      SubjS         F
  2     29 MGPE-SL  ExPerc      1       1          D2B  1090.49      SubjL         F
  2     30 MGPE-SL  ExPerc      1       1          D1A  1035.82      SubjS         F
  2     31 MGPE-SL  ExPerc      1       1          D1A   832.02      SubjS         F
  2     32 MGPE-SL  ExPerc      1       1          D2B   629.23      SubjL         F
  2     33 MGPE-SL  ExPerc      2       1          D1A   440.61      SubjL         C
  2     34 MGPE-SL  ExPerc      2       1          D1B   545.53      SubjL         C
  2     35 MGPE-SL  ExPerc      2       1          D2B   941.76      SubjS         C
  2     36 MGPE-SL  ExPerc      2       1          D1A   967.47      SubjL         C
  2     37 MGPE-SL  ExPerc      2       1          D2B  1165.24      SubjS         C
  2     38 MGPE-SL  ExPerc      2       1          D1A   615.43      SubjL         C
  2     39 MGPE-SL  ExPerc      2       1          D2A   724.59      SubjL         F
  2     40 MGPE-SL  ExPerc      2       1          D1A   637.28      SubjL         C
  2     41 MGPE-SL  ExPerc      2       1          D2B   724.60      SubjL         F
  2     42 MGPE-SL  ExPerc      2       1          D2A   994.54      SubjS         C
  2     43 MGPE-SL  ExPerc      2       1          D2A   471.63      SubjL         F
  2     44 MGPE-SL  ExPerc      2       1          D1B   545.68      SubjL         C
  2     45 MGPE-SL  ExPerc      2       1          D2A   853.08      SubjS         C
  2     46 MGPE-SL  ExPerc      2       1          D2A   356.91      SubjL         F
  2     47 MGPE-SL  ExPerc      2       1          D1B   416.17      SubjL         C
  2     48 MGPE-SL  ExPerc      2       1          D2B   750.59      SubjS         C
  2     49 MGPE-SL  ExPerc      2       1          D1A   439.25      SubjL         C
  2     50 MGPE-SL  ExPerc      2       1          D2A   848.47      SubjL         F
  2     51 MGPE-SL  ExPerc      2       1          D1A  1052.99      SubjL         C
  2     52 MGPE-SL  ExPerc      2       1          D2B   555.11      SubjL         F
  2     53 MGPE-SL  ExPerc      2       1          D1B   581.62      SubjL         C
  2     54 MGPE-SL  ExPerc      2       1          D1A  1072.44      SubjS         F
  2     55 MGPE-SL  ExPerc      2       1          D1B   787.86      SubjS         F
  2     56 MGPE-SL  ExPerc      2       1          D2B   378.59      SubjS         C
  2     57 MGPE-SL  ExPerc      2       1          D2A   302.74      SubjL         F
  2     58 MGPE-SL  ExPerc      2       1          D2B   591.01      SubjS         C
  2     59 MGPE-SL  ExPerc      2       1          D2A   539.17      SubjL         F
  2     60 MGPE-SL  ExPerc      2       1          D1B   634.63      SubjS         F
  2     61 MGPE-SL  ExPerc      2       1          D2B   540.40      SubjL         F
  2     62 MGPE-SL  ExPerc      2       1          D1B   953.31      SubjL         C
  2     63 MGPE-SL  ExPerc      2       1          D1A   848.47      SubjL         C
  2     64 MGPE-SL  ExPerc      2       1          D1B  1036.29      SubjS         F
  2     65 MGPE-SL  ExPerc      3       1          D2B   726.54      SubjS         C
  2     66 MGPE-SL  ExPerc      3       1          D1A   725.71      SubjS         F
  2     67 MGPE-SL  ExPerc      3       1          D2A   444.18      SubjL         F
  2     68 MGPE-SL  ExPerc      3       1          D2A   553.09      SubjS         C
  2     69 MGPE-SL  ExPerc      3       1          D1A   689.10      SubjL         C
  2     70 MGPE-SL  ExPerc      3       1          D2A   422.18      SubjS         C
  2     71 MGPE-SL  ExPerc      3       1          D2A   519.94      SubjL         F
  2     72 MGPE-SL  ExPerc      3       1          D1B   639.16      SubjS         F
  2     73 MGPE-SL  ExPerc      3       1          D1B  1063.50      SubjS         F
  2     74 MGPE-SL  ExPerc      3       1          D1A   916.75      SubjS         F
  2     75 MGPE-SL  ExPerc      3       1          D1A   541.73      SubjL         C
  2     76 MGPE-SL  ExPerc      3       1          D1B   419.93      SubjS         F
  2     77 MGPE-SL  ExPerc      3       1          D1B   370.15      SubjL         C
  2     78 MGPE-SL  ExPerc      3       1          D2B   547.89      SubjS         C
  2     79 MGPE-SL  ExPerc      3       1          D1B  1069.74      SubjS         F
  2     80 MGPE-SL  ExPerc      3       1          D2B  1127.80      SubjS         C
  2     81 MGPE-SL  ExPerc      3       1          D1A  1172.19      SubjS         F
  2     82 MGPE-SL  ExPerc      3       1          D1B   653.94      SubjL         C
  2     83 MGPE-SL  ExPerc      3       1          D1A   390.20      SubjL         C
  2     84 MGPE-SL  ExPerc      3       1          D2B   549.53      SubjL         F
  2     85 MGPE-SL  ExPerc      3       1          D2A   715.06      SubjL         F
  2     86 MGPE-SL  ExPerc      3       1          D2B   522.90      SubjL         F
  2     87 MGPE-SL  ExPerc      3       1          D2B   787.89      SubjL         F
  2     88 MGPE-SL  ExPerc      3       1          D1B  1172.26      SubjL         C
  2     89 MGPE-SL  ExPerc      3       1          D2A   614.95      SubjL         F
  2     90 MGPE-SL  ExPerc      3       1          D2B   618.15      SubjL         F
  2     91 MGPE-SL  ExPerc      3       1          D1B   575.81      SubjL         C
  2     92 MGPE-SL  ExPerc      3       1          D2A   840.89      SubjL         F
  2     93 MGPE-SL  ExPerc      3       1          D1A   529.02      SubjL         C
  2     94 MGPE-SL  ExPerc      3       1          D2B   644.75      SubjS         C
  2     95 MGPE-SL  ExPerc      3       1          D2A   442.47      SubjL         F
  2     96 MGPE-SL  ExPerc      3       1          D1A   524.07      SubjL         C
  2     97 MGPE-SL  ExPerc      4       1          D2A   640.22      SubjS         C
  2     98 MGPE-SL  ExPerc      4       1          D1A   712.78      SubjL         C
  2     99 MGPE-SL  ExPerc      4       1          D1A   608.18      SubjS         F
  2    100 MGPE-SL  ExPerc      4       1          D2A   594.69      SubjS         C
  2    101 MGPE-SL  ExPerc      4       1          D1A   670.59      SubjL         C
  2    102 MGPE-SL  ExPerc      4       1          D1A   510.62      SubjL         C
  2    103 MGPE-SL  ExPerc      4       1          D2B   626.99      SubjS         C
  2    104 MGPE-SL  ExPerc      4       1          D2A   577.62      SubjL         F
  2    105 MGPE-SL  ExPerc      4       1          D2A   726.17      SubjL         F
  2    106 MGPE-SL  ExPerc      4       1          D1B   549.20      SubjL         C
  2    107 MGPE-SL  ExPerc      4       1          D1B   939.64      SubjL         C
  2    108 MGPE-SL  ExPerc      4       1          D1B   862.07      SubjL         C
  2    109 MGPE-SL  ExPerc      4       1          D1A   528.82      SubjL         C
  2    110 MGPE-SL  ExPerc      4       1          D1B  1165.20      SubjL         C
  2    111 MGPE-SL  ExPerc      4       1          D2B  1215.77      SubjL         F
  2    112 MGPE-SL  ExPerc      4       1          D1B   842.37      SubjL         C
  2    113 MGPE-SL  ExPerc      4       1          D2A   623.54      SubjS         C
  2    114 MGPE-SL  ExPerc      4       1          D1A   894.94      SubjL         C
  2    115 MGPE-SL  ExPerc      4       1          D2B   861.88      SubjS         C
  2    116 MGPE-SL  ExPerc      4       1          D2B  1021.64      SubjS         C
  2    117 MGPE-SL  ExPerc      4       1          D2B   827.36      SubjL         F
  2    118 MGPE-SL  ExPerc      4       1          D2A   616.39      SubjL         F
  2    119 MGPE-SL  ExPerc      4       1          D1B   579.46      SubjL         C
  2    120 MGPE-SL  ExPerc      4       1          D2B   572.67      SubjL         F
  2    121 MGPE-SL  ExPerc      4       1          D2B   549.98      SubjL         F
  2    122 MGPE-SL  ExPerc      4       1          D2A   738.71      SubjS         C
  2    123 MGPE-SL  ExPerc      4       1          D1B   466.99      SubjL         C
  2    124 MGPE-SL  ExPerc      4       1          D2B   799.53      SubjS         C
  2    125 MGPE-SL  ExPerc      4       1          D1B   749.57      SubjL         C
  2    126 MGPE-SL  ExPerc      4       1          D2A   651.24      SubjL         F
  2    127 MGPE-SL  ExPerc      4       1          D1A   687.69      SubjL         C
  2    128 MGPE-SL  ExPerc      4       1          D1A   604.40      SubjL         C
  3      1 GPME-SL  ExPerc      1       0          D1A  1236.79      SubjS         F
  3      2 GPME-SL  ExPerc      1       0          D1A  1444.49      SubjL         C
  3      3 GPME-SL  ExPerc      1       0          D1A  1056.22      SubjL         C
  3      4 GPME-SL  ExPerc      1       0          D2A  1534.82      SubjL         F
  3      5 GPME-SL  ExPerc      1       0          D1B  1229.67      SubjS         F
  3      6 GPME-SL  ExPerc      1       0          D2B  1181.94      SubjL         F
  3      7 GPME-SL  ExPerc      1       0          D2B  1397.87      SubjL         F
  3      8 GPME-SL  ExPerc      1       0          D2B  1654.75      SubjS         C
  3      9 GPME-SL  ExPerc      1       1          D2B  1120.61      SubjS         C
  3     10 GPME-SL  ExPerc      1       1          D2A   726.61      SubjL         F
  3     11 GPME-SL  ExPerc      1       1          D1B  1005.58      SubjS         F
  3     12 GPME-SL  ExPerc      1       1          D2A  1014.88      SubjS         C
  3     13 GPME-SL  ExPerc      1       1          D2A  1089.92      SubjS         C
  3     14 GPME-SL  ExPerc      1       1          D2A   812.67      SubjS         C
  3     15 GPME-SL  ExPerc      1       1          D1A  1346.05      SubjS         F
  3     16 GPME-SL  ExPerc      1       1          D2B  1363.71      SubjS         C
  3     17 GPME-SL  ExPerc      1       1          D1A   758.70      SubjL         C
  3     18 GPME-SL  ExPerc      1       1          D2B   959.44      SubjL         F
  3     19 GPME-SL  ExPerc      1       1          D2B   836.01      SubjS         C
  3     20 GPME-SL  ExPerc      1       1          D1B   873.86      SubjL         C
  3     21 GPME-SL  ExPerc      1       1          D1B   869.88      SubjL         C
  3     22 GPME-SL  ExPerc      1       1          D2A   870.76      SubjS         C
  3     23 GPME-SL  ExPerc      1       1          D1B  1225.16      SubjL         C
  3     24 GPME-SL  ExPerc      1       1          D1B   699.38      SubjS         F
  3     25 GPME-SL  ExPerc      1       1          D2A   708.44      SubjS         C
  3     26 GPME-SL  ExPerc      1       1          D1B   872.91      SubjL         C
  3     27 GPME-SL  ExPerc      1       1          D1B  1069.21      SubjS         F
  3     28 GPME-SL  ExPerc      1       1          D1A  1019.21      SubjS         F
  3     29 GPME-SL  ExPerc      1       1          D2A  1276.24      SubjS         C
  3     30 GPME-SL  ExPerc      1       1          D1A   873.30      SubjL         C
  3     31 GPME-SL  ExPerc      1       1          D2B   783.95      SubjL         F
  3     32 GPME-SL  ExPerc      1       1          D1A  1016.94      SubjL         C
  3     33 GPME-SL  ExPerc      2       1          D1A  1154.47      SubjS         F
  3     34 GPME-SL  ExPerc      2       1          D2A   943.98      SubjL         F
  3     35 GPME-SL  ExPerc      2       1          D1B  1222.69      SubjS         F
  3     36 GPME-SL  ExPerc      2       1          D2B  1009.86      SubjL         F
  3     37 GPME-SL  ExPerc      2       1          D1A   980.76      SubjS         F
  3     38 GPME-SL  ExPerc      2       1          D1B   659.52      SubjL         C
  3     39 GPME-SL  ExPerc      2       1          D2A   581.71      SubjS         C
  3     40 GPME-SL  ExPerc      2       1          D1A   886.93      SubjS         F
  3     41 GPME-SL  ExPerc      2       1          D1B   765.21      SubjS         F
  3     42 GPME-SL  ExPerc      2       1          D1B   918.26      SubjS         F
  3     43 GPME-SL  ExPerc      2       1          D2B   907.47      SubjS         C
  3     44 GPME-SL  ExPerc      2       1          D1B   819.80      SubjL         C
  3     45 GPME-SL  ExPerc      2       1          D1A  1188.47      SubjL         C
  3     46 GPME-SL  ExPerc      2       1          D2A   931.49      SubjS         C
  3     47 GPME-SL  ExPerc      2       1          D2B   692.66      SubjL         F
  3     48 GPME-SL  ExPerc      2       1          D1B   794.50      SubjS         F
  3     49 GPME-SL  ExPerc      2       1          D1A   951.31      SubjS         F
  3     50 GPME-SL  ExPerc      2       1          D1B   901.49      SubjL         C
  3     51 GPME-SL  ExPerc      2       1          D2A   872.44      SubjS         C
  3     52 GPME-SL  ExPerc      2       1          D2A   974.03      SubjL         F
  3     53 GPME-SL  ExPerc      2       1          D2A  1164.22      SubjL         F
  3     54 GPME-SL  ExPerc      2       1          D2B  1153.13      SubjS         C
  3     55 GPME-SL  ExPerc      2       1          D2A  1127.78      SubjS         C
  3     56 GPME-SL  ExPerc      2       1          D1A   823.64      SubjL         C
  3     57 GPME-SL  ExPerc      2       1          D1A  1002.83      SubjL         C
  3     58 GPME-SL  ExPerc      2       1          D2A   917.98      SubjL         F
  3     59 GPME-SL  ExPerc      2       1          D1A  1005.64      SubjL         C
  3     60 GPME-SL  ExPerc      2       1          D2B  1414.83      SubjS         C
  3     61 GPME-SL  ExPerc      2       1          D1B  1842.85      SubjS         F
  3     62 GPME-SL  ExPerc      2       1          D2B  1388.17      SubjS         C
  3     63 GPME-SL  ExPerc      2       1          D2B  1654.62      SubjS         C
  3     64 GPME-SL  ExPerc      2       2          D2B  1166.74      SubjS         C
  3     65 GPME-SL  ExPerc      3       2          D1A   877.28      SubjS         F
  3     66 GPME-SL  ExPerc      3       2          D2B  1022.91      SubjL         F
  3     67 GPME-SL  ExPerc      3       2          D2A   792.88      SubjS         C
  3     68 GPME-SL  ExPerc      3       2          D2B   763.49      SubjL         F
  3     69 GPME-SL  ExPerc      3       2          D1A   935.75      SubjS         F
  3     70 GPME-SL  ExPerc      3       2          D2B  1035.91      SubjL         F
  3     71 GPME-SL  ExPerc      3       2          D2A   660.28      SubjS         C
  3     72 GPME-SL  ExPerc      3       2          D2A  1439.02      SubjL         F
  3     73 GPME-SL  ExPerc      3       2          D2B  1004.12      SubjS         C
  3     74 GPME-SL  ExPerc      3       2          D1B  1084.50      SubjS         F
  3     75 GPME-SL  ExPerc      3       2          D1A  1114.14      SubjL         C
  3     76 GPME-SL  ExPerc      3       2          D2A   890.85      SubjL         F
  3     77 GPME-SL  ExPerc      3       2          D2A  1395.41      SubjS         C
  3     78 GPME-SL  ExPerc      3       2          D1B   734.02      SubjL         C
  3     79 GPME-SL  ExPerc      3       2          D1B   807.65      SubjL         C
  3     80 GPME-SL  ExPerc      3       2          D1A  1097.07      SubjS         F
  3     81 GPME-SL  ExPerc      3       2          D1B  1225.13      SubjS         F
  3     82 GPME-SL  ExPerc      3       2          D2A   919.40      SubjS         C
  3     83 GPME-SL  ExPerc      3       2          D2B   824.53      SubjS         C
  3     84 GPME-SL  ExPerc      3       2          D1B  1437.25      SubjL         C
  3     85 GPME-SL  ExPerc      3       2          D1B   852.33      SubjL         C
  3     86 GPME-SL  ExPerc      3       2          D2A  1372.57      SubjL         F
  3     87 GPME-SL  ExPerc      3       2          D2B  1709.16      SubjS         C
  3     88 GPME-SL  ExPerc      3       2          D1B  1910.95      SubjS         F
  3     89 GPME-SL  ExPerc      3       2          D1A  1168.56      SubjS         F
  3     90 GPME-SL  ExPerc      3       2          D2B  1212.50      SubjS         C
  3     91 GPME-SL  ExPerc      3       2          D1A  1273.30      SubjS         F
  3     92 GPME-SL  ExPerc      3       2          D2A  1531.11      SubjS         C
  3     93 GPME-SL  ExPerc      3       2          D1A  1015.53      SubjL         C
  3     94 GPME-SL  ExPerc      3       2          D1B  1515.98      SubjL         C
  3     95 GPME-SL  ExPerc      3       2          D2B  1805.89      SubjS         C
  3     96 GPME-SL  ExPerc      3       2          D1A   834.49      SubjS         F
  3     97 GPME-SL  ExPerc      4       2          D1A  1103.32      SubjS         F
  3     98 GPME-SL  ExPerc      4       2          D1A   955.46      SubjS         F
  3     99 GPME-SL  ExPerc      4       2          D1B   850.53      SubjS         F
  3    100 GPME-SL  ExPerc      4       2          D2A   816.42      SubjS         C
  3    101 GPME-SL  ExPerc      4       2          D2A   891.34      SubjS         C
  3    102 GPME-SL  ExPerc      4       2          D2B  1209.00      SubjS         C
  3    103 GPME-SL  ExPerc      4       2          D1A   873.51      SubjS         F
  3    104 GPME-SL  ExPerc      4       2          D1B   940.89      SubjS         F
  3    105 GPME-SL  ExPerc      4       2          D1A   935.74      SubjL         C
  3    106 GPME-SL  ExPerc      4       2          D2B  1067.28      SubjS         C
  3    107 GPME-SL  ExPerc      4       2          D1B   871.60      SubjL         C
  3    108 GPME-SL  ExPerc      4       2          D1B  1233.76      SubjL         C
  3    109 GPME-SL  ExPerc      4       2          D2B  1228.75      SubjL         F
  3    110 GPME-SL  ExPerc      4       2          D2A  1545.97      SubjS         C
  3    111 GPME-SL  ExPerc      4       2          D2B  1097.66      SubjS         C
  3    112 GPME-SL  ExPerc      4       2          D1B   939.91      SubjS         F
  3    113 GPME-SL  ExPerc      4       2          D2B   999.62      SubjL         F
  3    114 GPME-SL  ExPerc      4       2          D2A  1371.19      SubjL         F
  3    115 GPME-SL  ExPerc      4       2          D2A   739.48      SubjL         F
  3    116 GPME-SL  ExPerc      4       2          D1A   837.80      SubjL         C
  3    117 GPME-SL  ExPerc      4       2          D2B   869.46      SubjS         C
  3    118 GPME-SL  ExPerc      4       2          D2A  1198.59      SubjS         C
  3    119 GPME-SL  ExPerc      4       2          D1A   955.19      SubjL         C
  3    120 GPME-SL  ExPerc      4       2          D1A   788.71      SubjL         C
  3    121 GPME-SL  ExPerc      4       2          D2B   971.75      SubjS         C
  3    122 GPME-SL  ExPerc      4       2          D1A  1507.59      SubjL         C
  3    123 GPME-SL  ExPerc      4       2          D2A  1189.53      SubjL         F
  3    124 GPME-SL  ExPerc      4       2          D1B  1301.03      SubjL         C
  3    125 GPME-SL  ExPerc      4       2          D2B  1696.70      SubjL         F
  3    126 GPME-SL  ExPerc      4       2          D2A  1352.79      SubjL         F
  3    127 GPME-SL  ExPerc      4       2          D1B  1192.14      SubjL         C
  3    128 GPME-SL  ExPerc      4       2          D1B  1174.51      SubjL         C
  4      1 GMPE-SL  ExPerc      1       0          D2A  1184.61      SubjS         C
  4      2 GMPE-SL  ExPerc      1       0          D1B  1346.92      SubjS         F
  4      3 GMPE-SL  ExPerc      1       0          D1B   908.03      SubjS         F
  4      4 GMPE-SL  ExPerc      1       0          D2B  1201.45      SubjS         C
  4      5 GMPE-SL  ExPerc      1       0          D1B  1169.75      SubjL         C
  4      6 GMPE-SL  ExPerc      1       0          D1A  1503.93      SubjL         C
  4      7 GMPE-SL  ExPerc      1       0          D1B  1225.40      SubjL         C
  4      8 GMPE-SL  ExPerc      1       0          D2A  1345.12      SubjS         C
  4      9 GMPE-SL  ExPerc      1       0          D1B  1070.52      SubjL         C
  4     10 GMPE-SL  ExPerc      1       0          D2A  1738.22      SubjS         C
  4     11 GMPE-SL  ExPerc      1       0          D1A  1766.97      SubjS         F
  4     12 GMPE-SL  ExPerc      1       0          D2B  1519.31      SubjS         C
  4     13 GMPE-SL  ExPerc      1       0          D2A  1598.45      SubjL         F
  4     14 GMPE-SL  ExPerc      1       0          D1B  1312.66      SubjL         C
  4     15 GMPE-SL  ExPerc      1       0          D1B  1630.23      SubjS         F
  4     16 GMPE-SL  ExPerc      1       0          D2A  1335.98      SubjS         C
  4     17 GMPE-SL  ExPerc      1       0          D2B  1631.95      SubjL         F
  4     18 GMPE-SL  ExPerc      1       0          D2A  1595.42      SubjS         C
  4     19 GMPE-SL  ExPerc      1       0          D1A  1729.41      SubjS         F
  4     20 GMPE-SL  ExPerc      1       0          D1B  1711.36      SubjL         C
  4     21 GMPE-SL  ExPerc      1       0          D2A  1072.64      SubjL         F
  4     22 GMPE-SL  ExPerc      1       0          D1A  1559.03      SubjS         F
  4     23 GMPE-SL  ExPerc      1       0          D2B  1525.45      SubjL         F
  4     24 GMPE-SL  ExPerc      1       0          D1A  1450.61      SubjS         F
  4     25 GMPE-SL  ExPerc      1       0          D2A  1437.45      SubjS         C
  4     26 GMPE-SL  ExPerc      1       0          D1A  1910.15      SubjS         F
  4     27 GMPE-SL  ExPerc      1       0          D1A  1811.20      SubjS         F
  4     28 GMPE-SL  ExPerc      1       0          D2B  1619.77      SubjL         F
  4     29 GMPE-SL  ExPerc      1       0          D2B  1557.06      SubjS         C
  4     30 GMPE-SL  ExPerc      1       0          D2B  1505.53      SubjL         F
  4     31 GMPE-SL  ExPerc      1       0          D1A  1559.27      SubjS         F
  4     32 GMPE-SL  ExPerc      1       0          D2B  1492.00      SubjL         F
  4     33 GMPE-SL  ExPerc      2       0          D1A  1414.32      SubjS         F
  4     34 GMPE-SL  ExPerc      2       0          D1A  1129.30      SubjS         F
  4     35 GMPE-SL  ExPerc      2       0          D1B  1474.71      SubjL         C
  4     36 GMPE-SL  ExPerc      2       0          D1B  1400.41      SubjL         C
  4     37 GMPE-SL  ExPerc      2       0          D2A   989.11      SubjS         C
  4     38 GMPE-SL  ExPerc      2       0          D2A  1581.18      SubjS         C
  4     39 GMPE-SL  ExPerc      2       0          D1B  1440.89      SubjL         C
  4     40 GMPE-SL  ExPerc      2       0          D2A   905.72      SubjS         C
  4     41 GMPE-SL  ExPerc      2       0          D2B   733.22      SubjL         F
  4     42 GMPE-SL  ExPerc      2       0          D2B   795.23      SubjL         F
  4     43 GMPE-SL  ExPerc      2       0          D1A   612.19      SubjL         C
  4     44 GMPE-SL  ExPerc      2       0          D1B   826.60      SubjL         C
  4     45 GMPE-SL  ExPerc      2       0          D2B  1590.38      SubjS         C
  4     46 GMPE-SL  ExPerc      2       0          D1A  1630.38      SubjS         F
  4     47 GMPE-SL  ExPerc      2       0          D2A  1631.07      SubjS         C
  4     48 GMPE-SL  ExPerc      2       0          D1B  1388.83      SubjS         F
  4     49 GMPE-SL  ExPerc      2       0          D1B   724.32      SubjL         C
  4     50 GMPE-SL  ExPerc      2       0          D2B   945.25      SubjS         C
  4     51 GMPE-SL  ExPerc      2       0          D2A  1270.61      SubjS         C
  4     52 GMPE-SL  ExPerc      2       0          D1B  1575.83      SubjS         F
  4     53 GMPE-SL  ExPerc      2       0          D2A  1536.65      SubjS         C
  4     54 GMPE-SL  ExPerc      2       0          D1A  1454.43      SubjS         F
  4     55 GMPE-SL  ExPerc      2       0          D1A   886.93      SubjS         F
  4     56 GMPE-SL  ExPerc      2       0          D1A  1340.10      SubjS         F
  4     57 GMPE-SL  ExPerc      2       0          D2A  1350.19      SubjS         C
  4     58 GMPE-SL  ExPerc      2       0          D1A  1258.13      SubjS         F
  4     59 GMPE-SL  ExPerc      2       0          D2B  1582.08      SubjS         C
  4     60 GMPE-SL  ExPerc      2       0          D2A  1636.21      SubjS         C
  4     61 GMPE-SL  ExPerc      2       0          D2B  1970.15      SubjS         C
  4     62 GMPE-SL  ExPerc      2       0          D1B  1999.05      SubjS         F
  4     63 GMPE-SL  ExPerc      2       0          D2B  1670.05      SubjS         C
  4     64 GMPE-SL  ExPerc      2       0          D2B  1426.88      SubjL         F
  4     65 GMPE-SL  ExPerc      3       0          D2A  1021.14      SubjS         C
  4     66 GMPE-SL  ExPerc      3       0          D2A   990.80      SubjS         C
  4     67 GMPE-SL  ExPerc      3       0          D2B  1199.78      SubjS         C
  4     68 GMPE-SL  ExPerc      3       0          D2B  1595.16      SubjS         C
  4     69 GMPE-SL  ExPerc      3       0          D2B  1579.54      SubjS         C
  4     70 GMPE-SL  ExPerc      3       0          D1B  1327.12      SubjS         F
  4     71 GMPE-SL  ExPerc      3       0          D1B  1581.68      SubjS         F
  4     72 GMPE-SL  ExPerc      3       0          D2A  1700.11      SubjS         C
  4     73 GMPE-SL  ExPerc      3       0          D1B  1648.88      SubjL         C
  4     74 GMPE-SL  ExPerc      3       0          D1A  1369.57      SubjS         F
  4     75 GMPE-SL  ExPerc      3       0          D1A  1265.26      SubjS         F
  4     76 GMPE-SL  ExPerc      3       0          D1B  1201.72      SubjS         F
  4     77 GMPE-SL  ExPerc      3       0          D2A  1351.09      SubjS         C
  4     78 GMPE-SL  ExPerc      3       0          D2B  1268.80      SubjS         C
  4     79 GMPE-SL  ExPerc      3       0          D1B  1138.62      SubjS         F
  4     80 GMPE-SL  ExPerc      3       0          D1A  1012.26      SubjS         F
  4     81 GMPE-SL  ExPerc      3       0          D2B  1188.64      SubjL         F
  4     82 GMPE-SL  ExPerc      3       0          D1B  1437.28      SubjL         C
  4     83 GMPE-SL  ExPerc      3       0          D1A  1695.04      SubjL         C
  4     84 GMPE-SL  ExPerc      3       0          D2B  1775.21      SubjS         C
  4     85 GMPE-SL  ExPerc      3       1          D1B  1102.42      SubjS         F
  4     86 GMPE-SL  ExPerc      3       1          D2B  1436.97      SubjS         C
  4     87 GMPE-SL  ExPerc      3       1          D2A  1446.02      SubjS         C
  4     88 GMPE-SL  ExPerc      3       1          D1A  1390.03      SubjS         F
  4     89 GMPE-SL  ExPerc      3       1          D2A  1712.53      SubjL         F
  4     90 GMPE-SL  ExPerc      3       1          D1A  1440.90      SubjS         F
  4     91 GMPE-SL  ExPerc      3       1          D2B  1109.16      SubjL         F
  4     92 GMPE-SL  ExPerc      3       1          D1B  1014.96      SubjL         C
  4     93 GMPE-SL  ExPerc      3       1          D1A  1580.20      SubjL         C
  4     94 GMPE-SL  ExPerc      3       1          D1A  1414.23      SubjL         C
  4     95 GMPE-SL  ExPerc      3       1          D2A  1366.58      SubjL         F
  4     96 GMPE-SL  ExPerc      3       1          D2A  1124.98      SubjS         C
  4     97 GMPE-SL  ExPerc      4       1          D2B  1209.34      SubjS         C
  4     98 GMPE-SL  ExPerc      4       1          D2A  1667.70      SubjS         C
  4     99 GMPE-SL  ExPerc      4       1          D1B  1384.31      SubjL         C
  4    100 GMPE-SL  ExPerc      4       1          D1B  1551.47      SubjL         C
  4    101 GMPE-SL  ExPerc      4       1          D1A  1344.83      SubjL         C
  4    102 GMPE-SL  ExPerc      4       1          D1A  1230.04      SubjL         C
  4    103 GMPE-SL  ExPerc      4       1          D1A  1305.94      SubjL         C
  4    104 GMPE-SL  ExPerc      4       1          D1B  1049.58      SubjS         F
  4    105 GMPE-SL  ExPerc      4       1          D1A  1335.91      SubjL         C
  4    106 GMPE-SL  ExPerc      4       1          D2A  1375.12      SubjS         C
  4    107 GMPE-SL  ExPerc      4       1          D2B  1478.54      SubjS         C
  4    108 GMPE-SL  ExPerc      4       1          D2A  1351.02      SubjS         C
  4    109 GMPE-SL  ExPerc      4       1          D2A   963.75      SubjL         F
  4    110 GMPE-SL  ExPerc      4       1          D2B  1911.86      SubjL         F
  4    111 GMPE-SL  ExPerc      4       1          D1A  1386.96      SubjS         F
  4    112 GMPE-SL  ExPerc      4       1          D2B  1310.15      SubjL         F
  4    113 GMPE-SL  ExPerc      4       1          D1B  1232.95      SubjS         F
  4    114 GMPE-SL  ExPerc      4       1          D2B  1048.78      SubjS         C
  4    115 GMPE-SL  ExPerc      4       1          D1A  1459.12      SubjS         F
  4    116 GMPE-SL  ExPerc      4       1          D1B  1571.88      SubjL         C
  4    117 GMPE-SL  ExPerc      4       1          D2A  1426.42      SubjL         F
  4    118 GMPE-SL  ExPerc      4       1          D1B  1253.20      SubjL         C
  4    119 GMPE-SL  ExPerc      4       1          D2A  1732.22      SubjS         C
  4    120 GMPE-SL  ExPerc      4       1          D1A  1400.72      SubjS         F
  4    121 GMPE-SL  ExPerc      4       1          D2A  1310.68      SubjL         F
  4    122 GMPE-SL  ExPerc      4       1          D1B  1791.24      SubjS         F
  4    123 GMPE-SL  ExPerc      4       1          D1A  1175.45      SubjS         F
  4    124 GMPE-SL  ExPerc      4       1          D2A  1426.54      SubjS         C
  4    125 GMPE-SL  ExPerc      4       1          D2B  1811.89      SubjS         C
  4    126 GMPE-SL  ExPerc      4       1          D1B  1312.85      SubjS         F
  4    127 GMPE-SL  ExPerc      4       1          D2B  1296.42      SubjS         C
  4    128 GMPE-SL  ExPerc      4       1          D2B  1202.93      SubjL         F
  5      1 PMGE-SL  ExPerc      1       0          D1B  1606.05      SubjS         F
  5      2 PMGE-SL  ExPerc      1       0          D1A   997.73      SubjL         C
  5      3 PMGE-SL  ExPerc      1       0          D1A   859.73      SubjL         C
  5      4 PMGE-SL  ExPerc      1       0          D1A   809.93      SubjL         C
  5      5 PMGE-SL  ExPerc      1       0          D2B   971.01      SubjS         C
  5      6 PMGE-SL  ExPerc      1       0          D2A   998.35      SubjS         C
  5      7 PMGE-SL  ExPerc      1       0          D2A   511.21      SubjL         F
  5      8 PMGE-SL  ExPerc      1       0          D1A   378.27      SubjL         C
  5      9 PMGE-SL  ExPerc      1       0          D2B   559.12      SubjL         F
  5     10 PMGE-SL  ExPerc      1       0          D1B  1396.88      SubjL         C
  5     11 PMGE-SL  ExPerc      1       0          D1A  1762.14      SubjS         F
  5     12 PMGE-SL  ExPerc      1       0          D1B   328.89      SubjL         C
  5     13 PMGE-SL  ExPerc      1       0          D2A  1083.55      SubjS         C
  5     14 PMGE-SL  ExPerc      1       0          D2A  1040.14      SubjL         F
  5     15 PMGE-SL  ExPerc      1       0          D2B  1118.83      SubjL         F
  5     16 PMGE-SL  ExPerc      1       0          D1B  1006.42      SubjS         F
  5     17 PMGE-SL  ExPerc      1       0          D2B   751.55      SubjL         F
  5     18 PMGE-SL  ExPerc      1       0          D1B   995.72      SubjS         F
  5     19 PMGE-SL  ExPerc      1       0          D1B   964.51      SubjS         F
  5     20 PMGE-SL  ExPerc      1       0          D1A  1104.48      SubjS         F
  5     21 PMGE-SL  ExPerc      1       0          D2B  1389.63      SubjS         C
  5     22 PMGE-SL  ExPerc      1       0          D2A   897.18      SubjS         C
  5     23 PMGE-SL  ExPerc      1       0          D2B  1072.78      SubjS         C
  5     24 PMGE-SL  ExPerc      1       0          D2A   905.63      SubjL         F
  5     25 PMGE-SL  ExPerc      1       0          D1B   942.12      SubjL         C
  5     26 PMGE-SL  ExPerc      1       0          D2B   658.34      SubjS         C
  5     27 PMGE-SL  ExPerc      1       0          D1A  1218.96      SubjS         F
  5     28 PMGE-SL  ExPerc      1       0          D1B  1126.27      SubjL         C
  5     29 PMGE-SL  ExPerc      1       0          D2A  1101.18      SubjS         C
  5     30 PMGE-SL  ExPerc      1       0          D2B   707.66      SubjL         F
  5     31 PMGE-SL  ExPerc      1       0          D1A   837.71      SubjS         F
  5     32 PMGE-SL  ExPerc      1       0          D2A   955.22      SubjS         C
  5     33 PMGE-SL  ExPerc      2       0          D1B  1141.13      SubjS         F
  5     34 PMGE-SL  ExPerc      2       0          D1B  1033.11      SubjS         F
  5     35 PMGE-SL  ExPerc      2       0          D1A   783.72      SubjS         F
  5     36 PMGE-SL  ExPerc      2       0          D2A   696.97      SubjS         C
  5     37 PMGE-SL  ExPerc      2       0          D1A   747.48      SubjL         C
  5     38 PMGE-SL  ExPerc      2       0          D1A   777.26      SubjL         C
  5     39 PMGE-SL  ExPerc      2       0          D2B  1165.96      SubjS         C
  5     40 PMGE-SL  ExPerc      2       0          D2A   747.34      SubjS         C
  5     41 PMGE-SL  ExPerc      2       0          D2A   692.95      SubjS         C
  5     42 PMGE-SL  ExPerc      2       0          D1B   991.23      SubjL         C
  5     43 PMGE-SL  ExPerc      2       0          D2A  1370.98      SubjL         F
  5     44 PMGE-SL  ExPerc      2       0          D2B  1433.86      SubjL         F
  5     45 PMGE-SL  ExPerc      2       0          D1A   773.65      SubjS         F
  5     46 PMGE-SL  ExPerc      2       0          D2A   734.30      SubjL         F
  5     47 PMGE-SL  ExPerc      2       0          D2B   695.47      SubjS         C
  5     48 PMGE-SL  ExPerc      2       0          D2B   572.46      SubjS         C
  5     49 PMGE-SL  ExPerc      2       0          D1B   774.71      SubjL         C
  5     50 PMGE-SL  ExPerc      2       0          D2A   793.85      SubjS         C
  5     51 PMGE-SL  ExPerc      2       0          D1A   926.11      SubjL         C
  5     52 PMGE-SL  ExPerc      2       0          D2B   755.28      SubjS         C
  5     53 PMGE-SL  ExPerc      2       0          D2B   682.46      SubjS         C
  5     54 PMGE-SL  ExPerc      2       0          D1B  1075.78      SubjL         C
  5     55 PMGE-SL  ExPerc      2       0          D2A  1169.69      SubjS         C
  5     56 PMGE-SL  ExPerc      2       0          D2A  1436.23      SubjS         C
  5     57 PMGE-SL  ExPerc      2       0          D1B   947.06      SubjL         C
  5     58 PMGE-SL  ExPerc      2       0          D1A   821.52      SubjL         C
  5     59 PMGE-SL  ExPerc      2       0          D1B   840.04      SubjL         C
  5     60 PMGE-SL  ExPerc      2       0          D1A   896.06      SubjL         C
  5     61 PMGE-SL  ExPerc      2       0          D1B   591.66      SubjS         F
  5     62 PMGE-SL  ExPerc      2       0          D2B   753.15      SubjL         F
  5     63 PMGE-SL  ExPerc      2       0          D1A   836.85      SubjS         F
  5     64 PMGE-SL  ExPerc      2       0          D2B   701.81      SubjL         F
  5     65 PMGE-SL  ExPerc      3       0          D2A  1431.06      SubjL         F
  5     66 PMGE-SL  ExPerc      3       0          D1A   937.01      SubjS         F
  5     67 PMGE-SL  ExPerc      3       0          D2A   789.40      SubjL         F
  5     68 PMGE-SL  ExPerc      3       0          D2B   900.05      SubjL         F
  5     69 PMGE-SL  ExPerc      3       0          D1B   946.15      SubjS         F
  5     70 PMGE-SL  ExPerc      3       0          D1B   802.75      SubjL         C
  5     71 PMGE-SL  ExPerc      3       0          D1B   801.51      SubjL         C
  5     72 PMGE-SL  ExPerc      3       0          D2B  1243.99      SubjS         C
  5     73 PMGE-SL  ExPerc      3       0          D2B   877.42      SubjS         C
  5     74 PMGE-SL  ExPerc      3       0          D2B   902.70      SubjS         C
  5     75 PMGE-SL  ExPerc      3       0          D1B   935.91      SubjS         F
  5     76 PMGE-SL  ExPerc      3       0          D1A   946.54      SubjL         C
  5     77 PMGE-SL  ExPerc      3       0          D2B  1114.42      SubjL         F
  5     78 PMGE-SL  ExPerc      3       0          D2B   932.16      SubjL         F
  5     79 PMGE-SL  ExPerc      3       0          D1B   706.72      SubjL         C
  5     80 PMGE-SL  ExPerc      3       0          D1A   833.03      SubjL         C
  5     81 PMGE-SL  ExPerc      3       0          D1A   948.26      SubjL         C
  5     82 PMGE-SL  ExPerc      3       0          D1A  1134.95      SubjL         C
  5     83 PMGE-SL  ExPerc      3       0          D2A   562.52      SubjS         C
  5     84 PMGE-SL  ExPerc      3       0          D1B   775.52      SubjL         C
  5     85 PMGE-SL  ExPerc      3       0          D2A  1057.48      SubjL         F
  5     86 PMGE-SL  ExPerc      3       0          D2A   835.60      SubjS         C
  5     87 PMGE-SL  ExPerc      3       0          D1A   592.75      SubjL         C
  5     88 PMGE-SL  ExPerc      3       0          D2A  1230.75      SubjS         C
  5     89 PMGE-SL  ExPerc      3       0          D1A   792.47      SubjL         C
  5     90 PMGE-SL  ExPerc      3       0          D2A   932.24      SubjS         C
  5     91 PMGE-SL  ExPerc      3       0          D1B   786.45      SubjL         C
  5     92 PMGE-SL  ExPerc      3       0          D1B   686.25      SubjS         F
  5     93 PMGE-SL  ExPerc      3       0          D1A   900.44      SubjL         C
  5     94 PMGE-SL  ExPerc      3       0          D2B   935.37      SubjS         C
  5     95 PMGE-SL  ExPerc      3       0          D2B   993.75      SubjS         C
  5     96 PMGE-SL  ExPerc      3       0          D2A  1149.72      SubjL         F
  5     97 PMGE-SL  ExPerc      4       0          D2A   908.32      SubjS         C
  5     98 PMGE-SL  ExPerc      4       0          D1A   932.76      SubjL         C
  5     99 PMGE-SL  ExPerc      4       0          D1A  1005.97      SubjS         F
  5    100 PMGE-SL  ExPerc      4       0          D1B  1003.80      SubjL         C
  5    101 PMGE-SL  ExPerc      4       0          D2A   785.41      SubjS         C
  5    102 PMGE-SL  ExPerc      4       0          D2B   666.71      SubjS         C
  5    103 PMGE-SL  ExPerc      4       0          D1A   768.13      SubjL         C
  5    104 PMGE-SL  ExPerc      4       0          D1B   745.60      SubjL         C
  5    105 PMGE-SL  ExPerc      4       0          D2B   533.94      SubjS         C
  5    106 PMGE-SL  ExPerc      4       0          D1B   644.25      SubjL         C
  5    107 PMGE-SL  ExPerc      4       0          D1A   834.15      SubjL         C
  5    108 PMGE-SL  ExPerc      4       0          D1A   914.21      SubjL         C
  5    109 PMGE-SL  ExPerc      4       0          D1B   574.00      SubjS         F
  5    110 PMGE-SL  ExPerc      4       0          D2A   355.08      SubjL         F
  5    111 PMGE-SL  ExPerc      4       0          D2A   388.11      SubjL         F
  5    112 PMGE-SL  ExPerc      4       0          D2B   812.75      SubjL         F
  5    113 PMGE-SL  ExPerc      4       0          D2B   432.07      SubjS         C
  5    114 PMGE-SL  ExPerc      4       0          D2B   615.54      SubjS         C
  5    115 PMGE-SL  ExPerc      4       0          D2A   360.91      SubjL         F
  5    116 PMGE-SL  ExPerc      4       0          D1B   726.07      SubjL         C
  5    117 PMGE-SL  ExPerc      4       0          D1B   821.54      SubjS         F
  5    118 PMGE-SL  ExPerc      4       0          D2A   827.46      SubjS         C
  5    119 PMGE-SL  ExPerc      4       0          D2B   826.97      SubjS         C
  5    120 PMGE-SL  ExPerc      4       0          D2A  1019.50      SubjL         F
  5    121 PMGE-SL  ExPerc      4       0          D2B  1000.95      SubjS         C
  5    122 PMGE-SL  ExPerc      4       0          D2A   945.64      SubjS         C
  5    123 PMGE-SL  ExPerc      4       0          D1B   760.01      SubjL         C
  5    124 PMGE-SL  ExPerc      4       0          D2B   638.05      SubjS         C
  5    125 PMGE-SL  ExPerc      4       0          D1A   809.83      SubjL         C
  5    126 PMGE-SL  ExPerc      4       0          D1A   984.00      SubjL         C
  5    127 PMGE-SL  ExPerc      4       0          D1B   833.41      SubjS         F
  5    128 PMGE-SL  ExPerc      4       0          D1A  1047.81      SubjS         F
  6      1 PGME-SL  ExPerc      1       0          D2A   634.01      SubjS         C
  6      2 PGME-SL  ExPerc      1       0          D2A   665.23      SubjS         C
  6      3 PGME-SL  ExPerc      1       0          D1A   663.91      SubjL         C
  6      4 PGME-SL  ExPerc      1       0          D2B   619.41      SubjL         F
  6      5 PGME-SL  ExPerc      1       0          D2B   650.24      SubjL         F
  6      6 PGME-SL  ExPerc      1       0          D1B   631.28      SubjS         F
  6      7 PGME-SL  ExPerc      1       0          D2A   709.88      SubjS         C
  6      8 PGME-SL  ExPerc      1       0          D2B   778.40      SubjS         C
  6      9 PGME-SL  ExPerc      1       0          D1A   608.63      SubjL         C
  6     10 PGME-SL  ExPerc      1       0          D1A   629.53      SubjS         F
  6     11 PGME-SL  ExPerc      1       0          D1A   641.96      SubjS         F
  6     12 PGME-SL  ExPerc      1       0          D2B   656.76      SubjL         F
  6     13 PGME-SL  ExPerc      1       0          D1B   682.42      SubjS         F
  6     14 PGME-SL  ExPerc      1       0          D1B   716.10      SubjL         C
  6     15 PGME-SL  ExPerc      1       0          D1B   740.60      SubjL         C
  6     16 PGME-SL  ExPerc      1       0          D2B   878.46      SubjL         F
  6     17 PGME-SL  ExPerc      1       0          D2B   693.72      SubjL         F
  6     18 PGME-SL  ExPerc      1       0          D1B   742.91      SubjL         C
  6     19 PGME-SL  ExPerc      1       0          D2A   577.94      SubjS         C
  6     20 PGME-SL  ExPerc      1       0          D1B   573.53      SubjS         F
  6     21 PGME-SL  ExPerc      1       0          D1A   531.33      SubjS         F
  6     22 PGME-SL  ExPerc      1       0          D2B   640.78      SubjS         C
  6     23 PGME-SL  ExPerc      1       0          D1B   588.24      SubjS         F
  6     24 PGME-SL  ExPerc      1       0          D1A   774.04      SubjL         C
  6     25 PGME-SL  ExPerc      1       0          D2A   580.24      SubjL         F
  6     26 PGME-SL  ExPerc      1       0          D1A   758.70      SubjL         C
  6     27 PGME-SL  ExPerc      1       0          D2A   645.71      SubjL         F
  6     28 PGME-SL  ExPerc      1       0          D2A   687.55      SubjS         C
  6     29 PGME-SL  ExPerc      1       0          D2A   746.01      SubjL         F
  6     30 PGME-SL  ExPerc      1       0          D1B   609.64      SubjL         C
  6     31 PGME-SL  ExPerc      1       0          D1A   656.41      SubjL         C
  6     32 PGME-SL  ExPerc      1       0          D2B   498.36      SubjL         F
  6     33 PGME-SL  ExPerc      2       0          D2B   747.26      SubjS         C
  6     34 PGME-SL  ExPerc      2       0          D2B   569.29      SubjS         C
  6     35 PGME-SL  ExPerc      2       0          D1B   817.63      SubjL         C
  6     36 PGME-SL  ExPerc      2       0          D1B   605.62      SubjS         F
  6     37 PGME-SL  ExPerc      2       0          D1B   740.26      SubjL         C
  6     38 PGME-SL  ExPerc      2       0          D2A   882.89      SubjL         F
  6     39 PGME-SL  ExPerc      2       0          D1B   722.32      SubjL         C
  6     40 PGME-SL  ExPerc      2       0          D1A   728.02      SubjL         C
  6     41 PGME-SL  ExPerc      2       0          D1A   740.94      SubjL         C
  6     42 PGME-SL  ExPerc      2       1          D1A   745.27      SubjL         C
  6     43 PGME-SL  ExPerc      2       1          D1A   635.23      SubjS         F
  6     44 PGME-SL  ExPerc      2       1          D1A   636.02      SubjS         F
  6     45 PGME-SL  ExPerc      2       1          D2B   840.85      SubjS         C
  6     46 PGME-SL  ExPerc      2       1          D2A   591.17      SubjL         F
  6     47 PGME-SL  ExPerc      2       1          D2A   705.63      SubjS         C
  6     48 PGME-SL  ExPerc      2       1          D2A   753.10      SubjS         C
  6     49 PGME-SL  ExPerc      2       1          D1A   718.26      SubjL         C
  6     50 PGME-SL  ExPerc      2       1          D1A   739.20      SubjS         F
  6     51 PGME-SL  ExPerc      2       1          D2B   753.03      SubjS         C
  6     52 PGME-SL  ExPerc      2       1          D1B   630.67      SubjL         C
  6     53 PGME-SL  ExPerc      2       1          D2A   782.83      SubjL         F
  6     54 PGME-SL  ExPerc      2       1          D2B   592.87      SubjS         C
  6     55 PGME-SL  ExPerc      2       1          D2A   757.89      SubjS         C
  6     56 PGME-SL  ExPerc      2       1          D1B   706.42      SubjL         C
  6     57 PGME-SL  ExPerc      2       1          D2B   822.82      SubjL         F
  6     58 PGME-SL  ExPerc      2       1          D2B   546.75      SubjS         C
  6     59 PGME-SL  ExPerc      2       1          D1B   809.17      SubjL         C
  6     60 PGME-SL  ExPerc      2       1          D2A   668.55      SubjS         C
  6     61 PGME-SL  ExPerc      2       1          D1A   708.94      SubjL         C
  6     62 PGME-SL  ExPerc      2       1          D1B   567.88      SubjS         F
  6     63 PGME-SL  ExPerc      2       1          D2B   578.72      SubjS         C
  6     64 PGME-SL  ExPerc      2       1          D2A   844.60      SubjL         F
  6     65 PGME-SL  ExPerc      3       1          D2A   708.72      SubjS         C
  6     66 PGME-SL  ExPerc      3       1          D1A   712.74      SubjS         F
  6     67 PGME-SL  ExPerc      3       1          D1A   795.78      SubjS         F
  6     68 PGME-SL  ExPerc      3       1          D1B   732.63      SubjL         C
  6     69 PGME-SL  ExPerc      3       1          D1B   750.98      SubjL         C
  6     70 PGME-SL  ExPerc      3       1          D1B   731.40      SubjL         C
  6     71 PGME-SL  ExPerc      3       1          D2B   721.76      SubjS         C
  6     72 PGME-SL  ExPerc      3       1          D1A   865.33      SubjS         F
  6     73 PGME-SL  ExPerc      3       1          D2B   720.77      SubjS         C
  6     74 PGME-SL  ExPerc      3       1          D1A   839.53      SubjS         F
  6     75 PGME-SL  ExPerc      3       1          D1B   659.14      SubjS         F
  6     76 PGME-SL  ExPerc      3       1          D1A   615.01      SubjS         F
  6     77 PGME-SL  ExPerc      3       1          D2A   742.40      SubjS         C
  6     78 PGME-SL  ExPerc      3       1          D2A   788.57      SubjL         F
  6     79 PGME-SL  ExPerc      3       1          D2B   646.30      SubjL         F
  6     80 PGME-SL  ExPerc      3       1          D1B   912.31      SubjL         C
  6     81 PGME-SL  ExPerc      3       1          D1B   712.11      SubjL         C
  6     82 PGME-SL  ExPerc      3       1          D2A   851.80      SubjS         C
  6     83 PGME-SL  ExPerc      3       1          D2A   663.42      SubjL         F
  6     84 PGME-SL  ExPerc      3       1          D1B   649.49      SubjS         F
  6     85 PGME-SL  ExPerc      3       1          D2B   704.05      SubjL         F
  6     86 PGME-SL  ExPerc      3       1          D2A   813.39      SubjS         C
  6     87 PGME-SL  ExPerc      3       1          D2A   663.08      SubjS         C
  6     88 PGME-SL  ExPerc      3       1          D1A   717.27      SubjL         C
  6     89 PGME-SL  ExPerc      3       1          D2B   877.51      SubjL         F
  6     90 PGME-SL  ExPerc      3       1          D1B   774.99      SubjS         F
  6     91 PGME-SL  ExPerc      3       1          D1A   736.43      SubjL         C
  6     92 PGME-SL  ExPerc      3       1          D2B   734.98      SubjL         F
  6     93 PGME-SL  ExPerc      3       1          D2A   942.14      SubjS         C
  6     94 PGME-SL  ExPerc      3       1          D2B   529.36      SubjL         F
  6     95 PGME-SL  ExPerc      3       1          D1A   662.26      SubjL         C
  6     96 PGME-SL  ExPerc      3       1          D2B   642.36      SubjS         C
  6     97 PGME-SL  ExPerc      4       1          D1B   673.68      SubjS         F
  6     98 PGME-SL  ExPerc      4       1          D1B   699.14      SubjS         F
  6     99 PGME-SL  ExPerc      4       1          D2B   648.02      SubjS         C
  6    100 PGME-SL  ExPerc      4       1          D1B   591.67      SubjL         C
  6    101 PGME-SL  ExPerc      4       1          D1A   669.24      SubjS         F
  6    102 PGME-SL  ExPerc      4       1          D1A   626.31      SubjL         C
  6    103 PGME-SL  ExPerc      4       1          D1A   570.30      SubjL         C
  6    104 PGME-SL  ExPerc      4       1          D2A   582.65      SubjL         F
  6    105 PGME-SL  ExPerc      4       1          D2B   667.31      SubjL         F
  6    106 PGME-SL  ExPerc      4       1          D1B   626.44      SubjL         C
  6    107 PGME-SL  ExPerc      4       1          D2B   812.09      SubjL         F
  6    108 PGME-SL  ExPerc      4       1          D1B   700.17      SubjL         C
  6    109 PGME-SL  ExPerc      4       1          D1A   662.18      SubjL         C
  6    110 PGME-SL  ExPerc      4       1          D2A   723.71      SubjS         C
  6    111 PGME-SL  ExPerc      4       1          D2A   712.75      SubjL         F
  6    112 PGME-SL  ExPerc      4       1          D1B   770.27      SubjL         C
  6    113 PGME-SL  ExPerc      4       1          D2B   755.69      SubjL         F
  6    114 PGME-SL  ExPerc      4       1          D1A   661.56      SubjL         C
  6    115 PGME-SL  ExPerc      4       1          D2A   779.83      SubjL         F
  6    116 PGME-SL  ExPerc      4       1          D2A   693.42      SubjS         C
  6    117 PGME-SL  ExPerc      4       1          D2A   719.88      SubjL         F
  6    118 PGME-SL  ExPerc      4       1          D2A   680.52      SubjL         F
  6    119 PGME-SL  ExPerc      4       1          D2B   964.26      SubjL         F
  6    120 PGME-SL  ExPerc      4       1          D1B   966.63      SubjL         C
  6    121 PGME-SL  ExPerc      4       1          D2B   565.30      SubjS         C
  6    122 PGME-SL  ExPerc      4       1          D1A   751.22      SubjL         C
  6    123 PGME-SL  ExPerc      4       1          D1A   746.91      SubjL         C
  6    124 PGME-SL  ExPerc      4       1          D2A   643.02      SubjS         C
  6    125 PGME-SL  ExPerc      4       1          D1A   668.18      SubjL         C
  6    126 PGME-SL  ExPerc      4       1          D2B   641.97      SubjL         F
  6    127 PGME-SL  ExPerc      4       1          D1B   693.08      SubjS         F
  6    128 PGME-SL  ExPerc      4       1          D2B   719.79      SubjS         C
  7      1 MPGE-LS  ExPerc      1       0          D2B  1049.64      SubjS         C
  7      2 MPGE-LS  ExPerc      1       0          D1A  1018.60      SubjL         C
  7      3 MPGE-LS  ExPerc      1       0          D2B   894.22      SubjL         F
  7      4 MPGE-LS  ExPerc      1       0          D1A   787.19      SubjS         F
  7      5 MPGE-LS  ExPerc      1       0          D2A   726.65      SubjS         C
  7      6 MPGE-LS  ExPerc      1       0          D1A  1172.99      SubjS         F
  7      7 MPGE-LS  ExPerc      1       0          D1A  1115.09      SubjL         C
  7      8 MPGE-LS  ExPerc      1       0          D2A   923.75      SubjS         C
  7      9 MPGE-LS  ExPerc      1       0          D2B   863.83      SubjS         C
  7     10 MPGE-LS  ExPerc      1       0          D1B   612.18      SubjL         C
  7     11 MPGE-LS  ExPerc      1       0          D1B   864.28      SubjL         C
  7     12 MPGE-LS  ExPerc      1       0          D2A   801.98      SubjL         F
  7     13 MPGE-LS  ExPerc      1       0          D1B   979.26      SubjL         C
  7     14 MPGE-LS  ExPerc      1       0          D2A  1041.68      SubjL         F
  7     15 MPGE-LS  ExPerc      1       0          D2B  1232.09      SubjL         F
  7     16 MPGE-LS  ExPerc      1       0          D1B  1419.54      SubjL         C
  7     17 MPGE-LS  ExPerc      1       0          D2A   816.83      SubjS         C
  7     18 MPGE-LS  ExPerc      1       0          D1A  1426.46      SubjL         C
  7     19 MPGE-LS  ExPerc      1       0          D2A  1164.16      SubjS         C
  7     20 MPGE-LS  ExPerc      1       0          D2A  1532.94      SubjS         C
  7     21 MPGE-LS  ExPerc      1       0          D1B   724.05      SubjL         C
  7     22 MPGE-LS  ExPerc      1       0          D1B  1149.86      SubjL         C
  7     23 MPGE-LS  ExPerc      1       0          D1B  1276.58      SubjL         C
  7     24 MPGE-LS  ExPerc      1       0          D1A   829.92      SubjL         C
  7     25 MPGE-LS  ExPerc      1       0          D2B   756.84      SubjS         C
  7     26 MPGE-LS  ExPerc      1       0          D1A   777.83      SubjL         C
  7     27 MPGE-LS  ExPerc      1       0          D2B   851.85      SubjL         F
  7     28 MPGE-LS  ExPerc      1       0          D1B  1038.52      SubjS         F
  7     29 MPGE-LS  ExPerc      1       0          D1A   598.87      SubjL         C
  7     30 MPGE-LS  ExPerc      1       0          D2B   733.78      SubjS         C
  7     31 MPGE-LS  ExPerc      1       0          D2B   773.01      SubjS         C
  7     32 MPGE-LS  ExPerc      1       0          D2A   833.67      SubjL         F
  7     33 MPGE-LS  ExPerc      2       1          D2A   869.40      SubjS         C
  7     34 MPGE-LS  ExPerc      2       1          D1B   558.61      SubjL         C
  7     35 MPGE-LS  ExPerc      2       1          D2A  1049.06      SubjS         C
  7     36 MPGE-LS  ExPerc      2       1          D2A  1034.31      SubjL         F
  7     37 MPGE-LS  ExPerc      2       1          D1B   766.65      SubjL         C
  7     38 MPGE-LS  ExPerc      2       1          D2B   755.60      SubjL         F
  7     39 MPGE-LS  ExPerc      2       1          D1A   790.81      SubjS         F
  7     40 MPGE-LS  ExPerc      2       1          D2B   681.79      SubjL         F
  7     41 MPGE-LS  ExPerc      2       1          D2B   854.31      SubjL         F
  7     42 MPGE-LS  ExPerc      2       1          D1A   886.91      SubjS         F
  7     43 MPGE-LS  ExPerc      2       1          D2B   956.08      SubjS         C
  7     44 MPGE-LS  ExPerc      2       1          D1B   754.81      SubjS         F
  7     45 MPGE-LS  ExPerc      2       1          D2B   730.98      SubjS         C
  7     46 MPGE-LS  ExPerc      2       1          D1A   466.86      SubjL         C
  7     47 MPGE-LS  ExPerc      2       1          D2A  1041.64      SubjS         C
  7     48 MPGE-LS  ExPerc      2       1          D2B  1000.99      SubjS         C
  7     49 MPGE-LS  ExPerc      2       1          D1B   567.06      SubjL         C
  7     50 MPGE-LS  ExPerc      2       1          D1B   989.94      SubjS         F
  7     51 MPGE-LS  ExPerc      2       1          D1A   518.00      SubjS         F
  7     52 MPGE-LS  ExPerc      2       1          D2A   570.31      SubjS         C
  7     53 MPGE-LS  ExPerc      2       1          D1B   782.88      SubjL         C
  7     54 MPGE-LS  ExPerc      2       1          D1B   903.61      SubjS         F
  7     55 MPGE-LS  ExPerc      2       1          D2A   792.78      SubjS         C
  7     56 MPGE-LS  ExPerc      2       1          D1A   614.33      SubjL         C
  7     57 MPGE-LS  ExPerc      2       1          D2B   779.39      SubjS         C
  7     58 MPGE-LS  ExPerc      2       1          D1A   991.89      SubjL         C
  7     59 MPGE-LS  ExPerc      2       1          D2A   804.82      SubjL         F
  7     60 MPGE-LS  ExPerc      2       1          D1B   915.91      SubjS         F
  7     61 MPGE-LS  ExPerc      2       1          D1A   619.33      SubjL         C
  7     62 MPGE-LS  ExPerc      2       1          D2B   684.00      SubjS         C
  7     63 MPGE-LS  ExPerc      2       1          D1A   732.76      SubjL         C
  7     64 MPGE-LS  ExPerc      2       1          D2A   790.57      SubjL         F
  7     65 MPGE-LS  ExPerc      3       1          D2B  1027.07      SubjS         C
  7     66 MPGE-LS  ExPerc      3       1          D2A   789.63      SubjL         F
  7     67 MPGE-LS  ExPerc      3       1          D2B   729.64      SubjS         C
  7     68 MPGE-LS  ExPerc      3       1          D2B   768.19      SubjS         C
  7     69 MPGE-LS  ExPerc      3       1          D2A   681.22      SubjL         F
  7     70 MPGE-LS  ExPerc      3       1          D1A   852.85      SubjS         F
  7     71 MPGE-LS  ExPerc      3       1          D2A   875.06      SubjS         C
  7     72 MPGE-LS  ExPerc      3       1          D1A   564.77      SubjL         C
  7     73 MPGE-LS  ExPerc      3       1          D2B   658.43      SubjS         C
  7     74 MPGE-LS  ExPerc      3       1          D1B   580.40      SubjL         C
  7     75 MPGE-LS  ExPerc      3       1          D2B   741.31      SubjS         C
  7     76 MPGE-LS  ExPerc      3       1          D1B   941.98      SubjL         C
  7     77 MPGE-LS  ExPerc      3       1          D1B   860.17      SubjS         F
  7     78 MPGE-LS  ExPerc      3       1          D2A   852.42      SubjS         C
  7     79 MPGE-LS  ExPerc      3       1          D1B   832.86      SubjL         C
  7     80 MPGE-LS  ExPerc      3       1          D1A  1121.33      SubjL         C
  7     81 MPGE-LS  ExPerc      3       1          D2B  1180.72      SubjL         F
  7     82 MPGE-LS  ExPerc      3       1          D1A   661.52      SubjL         C
  7     83 MPGE-LS  ExPerc      3       1          D1A   779.24      SubjS         F
  7     84 MPGE-LS  ExPerc      3       1          D2A  1003.03      SubjL         F
  7     85 MPGE-LS  ExPerc      3       1          D1A   872.02      SubjL         C
  7     86 MPGE-LS  ExPerc      3       1          D1B   851.26      SubjL         C
  7     87 MPGE-LS  ExPerc      3       1          D2A   802.92      SubjS         C
  7     88 MPGE-LS  ExPerc      3       1          D2A   673.96      SubjL         F
  7     89 MPGE-LS  ExPerc      3       1          D2B   907.27      SubjL         F
  7     90 MPGE-LS  ExPerc      3       1          D1B   748.18      SubjL         C
  7     91 MPGE-LS  ExPerc      3       1          D2A   994.97      SubjL         F
  7     92 MPGE-LS  ExPerc      3       1          D2B  1075.75      SubjS         C
  7     93 MPGE-LS  ExPerc      3       1          D1A   970.55      SubjL         C
  7     94 MPGE-LS  ExPerc      3       1          D1B   786.48      SubjL         C
  7     95 MPGE-LS  ExPerc      3       1          D1B   911.55      SubjL         C
  7     96 MPGE-LS  ExPerc      3       1          D1A   870.42      SubjL         C
  7     97 MPGE-LS  ExPerc      4       1          D1B  1282.08      SubjS         F
  7     98 MPGE-LS  ExPerc      4       1          D2B   765.34      SubjS         C
  7     99 MPGE-LS  ExPerc      4       1          D2A  1158.49      SubjL         F
  7    100 MPGE-LS  ExPerc      4       1          D2B   973.23      SubjL         F
  7    101 MPGE-LS  ExPerc      4       1          D1B   769.25      SubjL         C
  7    102 MPGE-LS  ExPerc      4       1          D2B   765.53      SubjS         C
  7    103 MPGE-LS  ExPerc      4       1          D1A   721.07      SubjL         C
  7    104 MPGE-LS  ExPerc      4       1          D2B  1297.67      SubjL         F
  7    105 MPGE-LS  ExPerc      4       1          D2B   751.75      SubjL         F
  7    106 MPGE-LS  ExPerc      4       1          D1B   574.22      SubjL         C
  7    107 MPGE-LS  ExPerc      4       1          D1A   682.38      SubjL         C
  7    108 MPGE-LS  ExPerc      4       1          D1A   659.01      SubjL         C
  7    109 MPGE-LS  ExPerc      4       1          D1A  1053.90      SubjS         F
  7    110 MPGE-LS  ExPerc      4       1          D2B   674.73      SubjS         C
  7    111 MPGE-LS  ExPerc      4       1          D1B   852.13      SubjL         C
  7    112 MPGE-LS  ExPerc      4       1          D1B   536.30      SubjL         C
  7    113 MPGE-LS  ExPerc      4       1          D1B   716.56      SubjS         F
  7    114 MPGE-LS  ExPerc      4       1          D1A   525.77      SubjS         F
  7    115 MPGE-LS  ExPerc      4       1          D2A   967.57      SubjL         F
  7    116 MPGE-LS  ExPerc      4       1          D2A   666.43      SubjS         C
  7    117 MPGE-LS  ExPerc      4       1          D1A   864.29      SubjS         F
  7    118 MPGE-LS  ExPerc      4       1          D2A   670.99      SubjL         F
  7    119 MPGE-LS  ExPerc      4       1          D2B   866.43      SubjL         F
  7    120 MPGE-LS  ExPerc      4       1          D2B   710.10      SubjS         C
  7    121 MPGE-LS  ExPerc      4       1          D1B   698.07      SubjL         C
  7    122 MPGE-LS  ExPerc      4       1          D1B   562.13      SubjS         F
  7    123 MPGE-LS  ExPerc      4       1          D1A   746.98      SubjL         C
  7    124 MPGE-LS  ExPerc      4       1          D2A  1026.37      SubjL         F
  7    125 MPGE-LS  ExPerc      4       1          D2A   603.77      SubjS         C
  7    126 MPGE-LS  ExPerc      4       1          D2A  1006.60      SubjS         C
  7    127 MPGE-LS  ExPerc      4       1          D2A   528.07      SubjL         F
  7    128 MPGE-LS  ExPerc      4       1          D1A   718.29      SubjL         C
  8      1 MGPE-LS  ExPerc      1       0          D2B  1136.80      SubjS         C
  8      2 MGPE-LS  ExPerc      1       0          D1A   898.60      SubjS         F
  8      3 MGPE-LS  ExPerc      1       0          D1B  1015.85      SubjL         C
  8      4 MGPE-LS  ExPerc      1       0          D1A  1358.99      SubjS         F
  8      5 MGPE-LS  ExPerc      1       0          D1B  1624.84      SubjL         C
  8      6 MGPE-LS  ExPerc      1       0          D2A  1002.39      SubjS         C
  8      7 MGPE-LS  ExPerc      1       0          D1A  1093.27      SubjL         C
  8      8 MGPE-LS  ExPerc      1       0          D2A   929.39      SubjS         C
  8      9 MGPE-LS  ExPerc      1       0          D2B  1242.45      SubjL         F
  8     10 MGPE-LS  ExPerc      1       0          D2B  1297.53      SubjL         F
  8     11 MGPE-LS  ExPerc      1       0          D2B  1329.13      SubjS         C
  8     12 MGPE-LS  ExPerc      1       0          D2B  1256.18      SubjS         C
  8     13 MGPE-LS  ExPerc      1       0          D2B  1425.93      SubjS         C
  8     14 MGPE-LS  ExPerc      1       0          D1A  1867.21      SubjL         C
  8     15 MGPE-LS  ExPerc      1       0          D1A  1010.54      SubjL         C
  8     16 MGPE-LS  ExPerc      1       0          D2B  1471.82      SubjL         F
  8     17 MGPE-LS  ExPerc      1       0          D2A  1400.26      SubjS         C
  8     18 MGPE-LS  ExPerc      1       0          D1B  1678.32      SubjS         F
  8     19 MGPE-LS  ExPerc      1       0          D1B  1267.93      SubjS         F
  8     20 MGPE-LS  ExPerc      1       1          D1B  1315.50      SubjL         C
  8     21 MGPE-LS  ExPerc      1       1          D2A  1380.15      SubjS         C
  8     22 MGPE-LS  ExPerc      1       1          D1A   773.31      SubjS         F
  8     23 MGPE-LS  ExPerc      1       1          D2B  1537.40      SubjL         F
  8     24 MGPE-LS  ExPerc      1       1          D2A  1171.82      SubjL         F
  8     25 MGPE-LS  ExPerc      1       1          D2A  1027.03      SubjL         F
  8     26 MGPE-LS  ExPerc      1       1          D1B  1012.05      SubjS         F
  8     27 MGPE-LS  ExPerc      1       1          D1B   939.95      SubjS         F
  8     28 MGPE-LS  ExPerc      1       1          D2A  1567.34      SubjS         C
  8     29 MGPE-LS  ExPerc      1       1          D1A  1135.34      SubjL         C
  8     30 MGPE-LS  ExPerc      1       1          D1A  1343.32      SubjL         C
  8     31 MGPE-LS  ExPerc      1       1          D2A  1305.49      SubjS         C
  8     32 MGPE-LS  ExPerc      1       1          D1B  1434.46      SubjS         F
  8     33 MGPE-LS  ExPerc      2       1          D2A   936.10      SubjS         C
  8     34 MGPE-LS  ExPerc      2       1          D2A   922.80      SubjS         C
  8     35 MGPE-LS  ExPerc      2       1          D2B  1091.54      SubjS         C
  8     36 MGPE-LS  ExPerc      2       1          D1B  1235.98      SubjL         C
  8     37 MGPE-LS  ExPerc      2       1          D1A  1162.12      SubjL         C
  8     38 MGPE-LS  ExPerc      2       1          D1A  1325.99      SubjL         C
  8     39 MGPE-LS  ExPerc      2       1          D1B   925.41      SubjS         F
  8     40 MGPE-LS  ExPerc      2       1          D2B  1024.62      SubjS         C
  8     41 MGPE-LS  ExPerc      2       1          D1B  1272.24      SubjL         C
  8     42 MGPE-LS  ExPerc      2       1          D2B  1026.12      SubjS         C
  8     43 MGPE-LS  ExPerc      2       1          D2B  1041.06      SubjS         C
  8     44 MGPE-LS  ExPerc      2       1          D2A  1282.68      SubjL         F
  8     45 MGPE-LS  ExPerc      2       1          D2A  1385.31      SubjL         F
  8     46 MGPE-LS  ExPerc      2       1          D1B  1091.60      SubjS         F
  8     47 MGPE-LS  ExPerc      2       1          D1B  1085.99      SubjL         C
  8     48 MGPE-LS  ExPerc      2       1          D1B  1168.44      SubjL         C
  8     49 MGPE-LS  ExPerc      2       1          D2B  1105.29      SubjS         C
  8     50 MGPE-LS  ExPerc      2       1          D1A   960.57      SubjS         F
  8     51 MGPE-LS  ExPerc      2       1          D2A   974.02      SubjL         F
  8     52 MGPE-LS  ExPerc      2       1          D2B  1327.40      SubjS         C
  8     53 MGPE-LS  ExPerc      2       1          D1A   955.48      SubjS         F
  8     54 MGPE-LS  ExPerc      2       1          D1B   940.45      SubjS         F
  8     55 MGPE-LS  ExPerc      2       1          D2B   949.48      SubjL         F
  8     56 MGPE-LS  ExPerc      2       1          D1B  1058.48      SubjS         F
  8     57 MGPE-LS  ExPerc      2       1          D2A  1108.11      SubjL         F
  8     58 MGPE-LS  ExPerc      2       1          D1A  1112.22      SubjL         C
  8     59 MGPE-LS  ExPerc      2       2          D1A  1297.78      SubjL         C
  8     60 MGPE-LS  ExPerc      2       2          D2B  1146.67      SubjS         C
  8     61 MGPE-LS  ExPerc      2       2          D2A  1114.40      SubjL         F
  8     62 MGPE-LS  ExPerc      2       2          D1A   734.40      SubjS         F
  8     63 MGPE-LS  ExPerc      2       2          D2A   991.53      SubjL         F
  8     64 MGPE-LS  ExPerc      2       2          D1A  1245.55      SubjL         C
  8     65 MGPE-LS  ExPerc      3       2          D2B   883.06      SubjS         C
  8     66 MGPE-LS  ExPerc      3       2          D1B   918.20      SubjS         F
  8     67 MGPE-LS  ExPerc      3       2          D1A  1003.34      SubjL         C
  8     68 MGPE-LS  ExPerc      3       2          D2A   865.56      SubjS         C
  8     69 MGPE-LS  ExPerc      3       2          D1B  1208.17      SubjL         C
  8     70 MGPE-LS  ExPerc      3       2          D2A  1224.08      SubjS         C
  8     71 MGPE-LS  ExPerc      3       2          D1A  1123.29      SubjS         F
  8     72 MGPE-LS  ExPerc      3       2          D2B  1095.85      SubjS         C
  8     73 MGPE-LS  ExPerc      3       2          D2B  1233.81      SubjL         F
  8     74 MGPE-LS  ExPerc      3       2          D2B  1344.06      SubjL         F
  8     75 MGPE-LS  ExPerc      3       2          D2A  1205.41      SubjL         F
  8     76 MGPE-LS  ExPerc      3       2          D2B  1106.51      SubjS         C
  8     77 MGPE-LS  ExPerc      3       2          D2A  1599.21      SubjL         F
  8     78 MGPE-LS  ExPerc      3       2          D2A  1021.44      SubjL         F
  8     79 MGPE-LS  ExPerc      3       2          D1A  1235.91      SubjS         F
  8     80 MGPE-LS  ExPerc      3       2          D1B  1339.60      SubjL         C
  8     81 MGPE-LS  ExPerc      3       2          D1B   962.76      SubjL         C
  8     82 MGPE-LS  ExPerc      3       2          D2B   966.43      SubjS         C
  8     83 MGPE-LS  ExPerc      3       2          D2B   972.92      SubjL         F
  8     84 MGPE-LS  ExPerc      3       2          D2A   928.97      SubjS         C
  8     85 MGPE-LS  ExPerc      3       2          D1B  1045.84      SubjS         F
  8     86 MGPE-LS  ExPerc      3       2          D2A   942.16      SubjL         F
  8     87 MGPE-LS  ExPerc      3       2          D2B  1122.31      SubjL         F
  8     88 MGPE-LS  ExPerc      3       2          D2A  1015.82      SubjS         C
  8     89 MGPE-LS  ExPerc      3       2          D1A   863.40      SubjL         C
  8     90 MGPE-LS  ExPerc      3       2          D1A   969.79      SubjL         C
  8     91 MGPE-LS  ExPerc      3       2          D1A  1033.20      SubjS         F
  8     92 MGPE-LS  ExPerc      3       2          D1A  1119.77      SubjS         F
  8     93 MGPE-LS  ExPerc      3       2          D1A  1427.83      SubjL         C
  8     94 MGPE-LS  ExPerc      3       2          D1B   953.18      SubjL         C
  8     95 MGPE-LS  ExPerc      3       2          D1B  1025.70      SubjS         F
  8     96 MGPE-LS  ExPerc      3       2          D1B   972.55      SubjS         F
  8     97 MGPE-LS  ExPerc      4       2          D2B   753.99      SubjS         C
  8     98 MGPE-LS  ExPerc      4       2          D1B   982.77      SubjL         C
  8     99 MGPE-LS  ExPerc      4       2          D1A  1124.26      SubjL         C
  8    100 MGPE-LS  ExPerc      4       2          D2B   956.27      SubjS         C
  8    101 MGPE-LS  ExPerc      4       2          D1A   804.01      SubjL         C
  8    102 MGPE-LS  ExPerc      4       2          D1A   982.11      SubjS         F
  8    103 MGPE-LS  ExPerc      4       2          D1B  1279.74      SubjS         F
  8    104 MGPE-LS  ExPerc      4       2          D2A   985.13      SubjL         F
  8    105 MGPE-LS  ExPerc      4       2          D1A   993.54      SubjL         C
  8    106 MGPE-LS  ExPerc      4       2          D2B   895.77      SubjS         C
  8    107 MGPE-LS  ExPerc      4       2          D1B  1144.57      SubjS         F
  8    108 MGPE-LS  ExPerc      4       2          D2A  1049.66      SubjS         C
  8    109 MGPE-LS  ExPerc      4       2          D2A  1191.50      SubjL         F
  8    110 MGPE-LS  ExPerc      4       2          D1B  1665.53      SubjS         F
  8    111 MGPE-LS  ExPerc      4       2          D2B  1374.26      SubjL         F
  8    112 MGPE-LS  ExPerc      4       2          D1B   968.60      SubjS         F
  8    113 MGPE-LS  ExPerc      4       2          D2B  1145.49      SubjL         F
  8    114 MGPE-LS  ExPerc      4       2          D2B   989.22      SubjL         F
  8    115 MGPE-LS  ExPerc      4       2          D1A  1071.09      SubjS         F
  8    116 MGPE-LS  ExPerc      4       2          D1A  1042.87      SubjL         C
  8    117 MGPE-LS  ExPerc      4       2          D2A   912.12      SubjS         C
  8    118 MGPE-LS  ExPerc      4       2          D2A   971.54      SubjS         C
  8    119 MGPE-LS  ExPerc      4       2          D2A  1089.06      SubjL         F
  8    120 MGPE-LS  ExPerc      4       2          D1A   876.68      SubjL         C
  8    121 MGPE-LS  ExPerc      4       2          D1A  1576.66      SubjL         C
  8    122 MGPE-LS  ExPerc      4       2          D2A  1499.39      SubjS         C
  8    123 MGPE-LS  ExPerc      4       2          D1B  1225.54      SubjL         C
  8    124 MGPE-LS  ExPerc      4       2          D2B  1284.08      SubjL         F
  8    125 MGPE-LS  ExPerc      4       2          D2B  1396.16      SubjS         C
  8    126 MGPE-LS  ExPerc      4       2          D2A  1126.55      SubjS         C
  8    127 MGPE-LS  ExPerc      4       2          D1B  1146.32      SubjL         C
  8    128 MGPE-LS  ExPerc      4       2          D1B  1062.44      SubjL         C
  9      1 GPME-LS  ExPerc      1       0          D1B   889.24      SubjS         F
  9      2 GPME-LS  ExPerc      1       0          D2A   995.60      SubjS         C
  9      3 GPME-LS  ExPerc      1       0          D1A   848.68      SubjL         C
  9      4 GPME-LS  ExPerc      1       0          D2B   776.05      SubjS         C
  9      5 GPME-LS  ExPerc      1       0          D2B   842.21      SubjL         F
  9      6 GPME-LS  ExPerc      1       0          D2A   901.62      SubjL         F
  9      7 GPME-LS  ExPerc      1       0          D1B   957.24      SubjL         C
  9      8 GPME-LS  ExPerc      1       0          D1B   812.81      SubjL         C
  9      9 GPME-LS  ExPerc      1       0          D1A   886.58      SubjS         F
  9     10 GPME-LS  ExPerc      1       0          D2A   682.62      SubjL         F
  9     11 GPME-LS  ExPerc      1       0          D1B   830.19      SubjL         C
  9     12 GPME-LS  ExPerc      1       0          D2A   754.64      SubjL         F
  9     13 GPME-LS  ExPerc      1       0          D1A   723.24      SubjL         C
  9     14 GPME-LS  ExPerc      1       0          D1A   905.82      SubjS         F
  9     15 GPME-LS  ExPerc      1       0          D1B  1167.06      SubjL         C
  9     16 GPME-LS  ExPerc      1       0          D1A  1191.43      SubjL         C
  9     17 GPME-LS  ExPerc      1       0          D2A   807.16      SubjS         C
  9     18 GPME-LS  ExPerc      1       0          D1A   931.19      SubjL         C
  9     19 GPME-LS  ExPerc      1       0          D1B   795.57      SubjL         C
  9     20 GPME-LS  ExPerc      1       0          D2A   914.03      SubjL         F
  9     21 GPME-LS  ExPerc      1       0          D2B   794.98      SubjL         F
  9     22 GPME-LS  ExPerc      1       0          D2A   889.56      SubjS         C
  9     23 GPME-LS  ExPerc      1       0          D1B   739.75      SubjL         C
  9     24 GPME-LS  ExPerc      1       0          D2B  1192.04      SubjL         F
  9     25 GPME-LS  ExPerc      1       0          D2A   987.28      SubjL         F
  9     26 GPME-LS  ExPerc      1       0          D1B  1150.82      SubjL         C
  9     27 GPME-LS  ExPerc      1       0          D2B   757.84      SubjS         C
  9     28 GPME-LS  ExPerc      1       0          D2B  1049.04      SubjL         F
  9     29 GPME-LS  ExPerc      1       0          D1A  1152.91      SubjL         C
  9     30 GPME-LS  ExPerc      1       0          D1A  1111.09      SubjL         C
  9     31 GPME-LS  ExPerc      1       0          D2B  1385.63      SubjL         F
  9     32 GPME-LS  ExPerc      1       0          D2B   863.51      SubjS         C
  9     33 GPME-LS  ExPerc      2       0          D1A   921.25      SubjL         C
  9     34 GPME-LS  ExPerc      2       0          D2A   701.84      SubjL         F
  9     35 GPME-LS  ExPerc      2       0          D1A   936.54      SubjS         F
  9     36 GPME-LS  ExPerc      2       0          D1A   681.13      SubjL         C
  9     37 GPME-LS  ExPerc      2       0          D1B   919.27      SubjS         F
  9     38 GPME-LS  ExPerc      2       0          D2B   970.94      SubjL         F
  9     39 GPME-LS  ExPerc      2       0          D1B  1154.35      SubjL         C
  9     40 GPME-LS  ExPerc      2       0          D2A   782.95      SubjS         C
  9     41 GPME-LS  ExPerc      2       0          D1A   880.35      SubjL         C
  9     42 GPME-LS  ExPerc      2       0          D2B   771.23      SubjL         F
  9     43 GPME-LS  ExPerc      2       0          D1A  1268.63      SubjL         C
  9     44 GPME-LS  ExPerc      2       0          D1B  1266.41      SubjL         C
  9     45 GPME-LS  ExPerc      2       0          D1A  1044.94      SubjS         F
  9     46 GPME-LS  ExPerc      2       0          D1B   894.62      SubjL         C
  9     47 GPME-LS  ExPerc      2       0          D2A  1176.12      SubjS         C
  9     48 GPME-LS  ExPerc      2       0          D2A  1021.14      SubjS         C
  9     49 GPME-LS  ExPerc      2       0          D1B   908.39      SubjL         C
  9     50 GPME-LS  ExPerc      2       0          D2B  1243.88      SubjS         C
  9     51 GPME-LS  ExPerc      2       0          D1B   721.03      SubjS         F
  9     52 GPME-LS  ExPerc      2       0          D2A   864.65      SubjS         C
  9     53 GPME-LS  ExPerc      2       0          D2A   986.28      SubjS         C
  9     54 GPME-LS  ExPerc      2       0          D1B   637.02      SubjL         C
  9     55 GPME-LS  ExPerc      2       0          D2A   807.78      SubjS         C
  9     56 GPME-LS  ExPerc      2       0          D2A  1150.47      SubjL         F
  9     57 GPME-LS  ExPerc      2       0          D1A  1240.79      SubjS         F
  9     58 GPME-LS  ExPerc      2       0          D2B  1277.88      SubjS         C
  9     59 GPME-LS  ExPerc      2       0          D1A  1021.40      SubjL         C
  9     60 GPME-LS  ExPerc      2       0          D2B   685.88      SubjS         C
  9     61 GPME-LS  ExPerc      2       0          D2B  1200.66      SubjS         C
  9     62 GPME-LS  ExPerc      2       0          D2B  1591.90      SubjS         C
  9     63 GPME-LS  ExPerc      2       0          D1B  1012.34      SubjL         C
  9     64 GPME-LS  ExPerc      2       0          D2B  1100.72      SubjL         F
  9     65 GPME-LS  ExPerc      3       0          D1A   801.41      SubjL         C
  9     66 GPME-LS  ExPerc      3       0          D2A   819.08      SubjS         C
  9     67 GPME-LS  ExPerc      3       0          D2B   990.56      SubjS         C
  9     68 GPME-LS  ExPerc      3       0          D1A  1052.16      SubjL         C
  9     69 GPME-LS  ExPerc      3       0          D2B  1136.06      SubjS         C
  9     70 GPME-LS  ExPerc      3       0          D2B   999.71      SubjS         C
  9     71 GPME-LS  ExPerc      3       0          D1B   984.44      SubjS         F
  9     72 GPME-LS  ExPerc      3       0          D2A  1624.49      SubjS         C
  9     73 GPME-LS  ExPerc      3       0          D2B  1360.06      SubjS         C
  9     74 GPME-LS  ExPerc      3       0          D1B  1283.23      SubjL         C
  9     75 GPME-LS  ExPerc      3       0          D2A  1368.07      SubjL         F
  9     76 GPME-LS  ExPerc      3       0          D2A  1167.76      SubjL         F
  9     77 GPME-LS  ExPerc      3       0          D1A   937.10      SubjL         C
  9     78 GPME-LS  ExPerc      3       0          D2A  1002.65      SubjS         C
  9     79 GPME-LS  ExPerc      3       0          D1B  1073.83      SubjS         F
  9     80 GPME-LS  ExPerc      3       0          D1A  1228.88      SubjS         F
  9     81 GPME-LS  ExPerc      3       0          D2B  1119.79      SubjS         C
  9     82 GPME-LS  ExPerc      3       0          D1B   888.16      SubjL         C
  9     83 GPME-LS  ExPerc      3       0          D1A   853.26      SubjL         C
  9     84 GPME-LS  ExPerc      3       0          D2A  1371.17      SubjL         F
  9     85 GPME-LS  ExPerc      3       0          D2B   901.96      SubjS         C
  9     86 GPME-LS  ExPerc      3       0          D1A  1171.56      SubjS         F
  9     87 GPME-LS  ExPerc      3       0          D2B  1013.11      SubjL         F
  9     88 GPME-LS  ExPerc      3       0          D1B  1026.47      SubjL         C
  9     89 GPME-LS  ExPerc      3       0          D1A   736.72      SubjL         C
  9     90 GPME-LS  ExPerc      3       0          D2B  1181.10      SubjL         F
  9     91 GPME-LS  ExPerc      3       0          D1B  1330.62      SubjL         C
  9     92 GPME-LS  ExPerc      3       0          D1B  1382.55      SubjL         C
  9     93 GPME-LS  ExPerc      3       0          D2A   897.75      SubjS         C
  9     94 GPME-LS  ExPerc      3       0          D2A   828.32      SubjS         C
  9     95 GPME-LS  ExPerc      3       0          D1A   755.15      SubjL         C
  9     96 GPME-LS  ExPerc      3       0          D1B  1128.05      SubjS         F
  9     97 GPME-LS  ExPerc      4       0          D1A  1192.12      SubjS         F
  9     98 GPME-LS  ExPerc      4       0          D2A  1171.18      SubjS         C
  9     99 GPME-LS  ExPerc      4       0          D1B   713.50      SubjL         C
  9    100 GPME-LS  ExPerc      4       0          D1A   988.89      SubjS         F
  9    101 GPME-LS  ExPerc      4       0          D2B   933.26      SubjL         F
  9    102 GPME-LS  ExPerc      4       0          D2B  1125.28      SubjL         F
  9    103 GPME-LS  ExPerc      4       0          D1B  1195.13      SubjL         C
  9    104 GPME-LS  ExPerc      4       0          D2B  1073.44      SubjS         C
  9    105 GPME-LS  ExPerc      4       0          D1B  1091.49      SubjL         C
  9    106 GPME-LS  ExPerc      4       0          D1B   830.16      SubjL         C
  9    107 GPME-LS  ExPerc      4       0          D1B  1059.13      SubjL         C
  9    108 GPME-LS  ExPerc      4       0          D1A  1261.54      SubjS         F
  9    109 GPME-LS  ExPerc      4       0          D2A  1237.13      SubjS         C
  9    110 GPME-LS  ExPerc      4       0          D1A   818.11      SubjL         C
  9    111 GPME-LS  ExPerc      4       0          D1A  1029.08      SubjS         F
  9    112 GPME-LS  ExPerc      4       0          D2B   724.66      SubjL         F
  9    113 GPME-LS  ExPerc      4       0          D2A   958.28      SubjS         C
  9    114 GPME-LS  ExPerc      4       0          D2B  1179.04      SubjL         F
  9    115 GPME-LS  ExPerc      4       0          D2B  1226.73      SubjS         C
  9    116 GPME-LS  ExPerc      4       0          D1B  1396.54      SubjL         C
  9    117 GPME-LS  ExPerc      4       0          D1B  1542.35      SubjL         C
  9    118 GPME-LS  ExPerc      4       0          D2B  1335.34      SubjS         C
  9    119 GPME-LS  ExPerc      4       0          D1A  1450.72      SubjL         C
  9    120 GPME-LS  ExPerc      4       0          D2A  1350.86      SubjS         C
  9    121 GPME-LS  ExPerc      4       0          D1B  1331.57      SubjL         C
  9    122 GPME-LS  ExPerc      4       0          D2A  1141.96      SubjL         F
  9    123 GPME-LS  ExPerc      4       0          D2B  1312.50      SubjL         F
  9    124 GPME-LS  ExPerc      4       0          D1A  1069.22      SubjL         C
  9    125 GPME-LS  ExPerc      4       0          D1A  1061.14      SubjL         C
  9    126 GPME-LS  ExPerc      4       0          D2A  1061.99      SubjS         C
  9    127 GPME-LS  ExPerc      4       0          D2A  1392.21      SubjS         C
  9    128 GPME-LS  ExPerc      4       0          D2A  1517.77      SubjS         C
 10      1 GMPE-LS  ExPerc      1       0          D1B   788.25      SubjS         F
 10      2 GMPE-LS  ExPerc      1       0          D2B   701.47      SubjS         C
 10      3 GMPE-LS  ExPerc      1       0          D1B   999.09      SubjS         F
 10      4 GMPE-LS  ExPerc      1       0          D2A  1262.91      SubjS         C
 10      5 GMPE-LS  ExPerc      1       0          D1A  1771.57      SubjS         F
 10      6 GMPE-LS  ExPerc      1       0          D1B  1035.95      SubjS         F
 10      7 GMPE-LS  ExPerc      1       0          D2B  1317.32      SubjS         C
 10      8 GMPE-LS  ExPerc      1       0          D1A  1056.34      SubjL         C
 10      9 GMPE-LS  ExPerc      1       0          D2B   797.38      SubjL         F
 10     10 GMPE-LS  ExPerc      1       0          D1A   956.15      SubjL         C
 10     11 GMPE-LS  ExPerc      1       0          D1A  1081.91      SubjL         C
 10     12 GMPE-LS  ExPerc      1       0          D2A   875.38      SubjL         F
 10     13 GMPE-LS  ExPerc      1       0          D1A  1319.73      SubjS         F
 10     14 GMPE-LS  ExPerc      1       0          D2A   588.39      SubjS         C
 10     15 GMPE-LS  ExPerc      1       0          D2B  1415.90      SubjS         C
 10     16 GMPE-LS  ExPerc      1       0          D2A   938.62      SubjL         F
 10     17 GMPE-LS  ExPerc      1       0          D2A   886.35      SubjL         F
 10     18 GMPE-LS  ExPerc      1       0          D1B   912.27      SubjL         C
 10     19 GMPE-LS  ExPerc      1       0          D2B   894.08      SubjL         F
 10     20 GMPE-LS  ExPerc      1       0          D1A   806.67      SubjL         C
 10     21 GMPE-LS  ExPerc      1       0          D2A  1374.09      SubjL         F
 10     22 GMPE-LS  ExPerc      1       0          D1A   943.34      SubjL         C
 10     23 GMPE-LS  ExPerc      1       0          D2A   780.85      SubjL         F
